<Bundle xmlns="http://hl7.org/fhir">
   <id value="d7e3"/>
   <type value="transaction"/>
   <entry>
      <fullUrl value="http://example.com/Patient/2"/>
      <resource>
         <Patient>
            <id value="2"/>
            <meta>
               <profile value="https://fhir.bbmri.de/StructureDefinition/Patient"/>
            </meta>
            <identifier>
               <type>
                  <coding>
                     <system value="http://dktk.dkfz.de/fhir/onco/core/CodeSystem/PseudonymArtCS"/>
                     <code value="Lokal"/>
                  </coding>
               </type>
               <value value="2"/>
            </identifier>
            <gender value="male"/>
            <birthDate value="1986-01-01"/>
         </Patient>
      </resource>
      <request>
         <method value="PUT"/>
         <url value="Patient/2"/>
      </request>
   </entry>
   <entry>
      <fullUrl value="http://example.com/Observation/2-vitalstatus"/>
      <resource>
         <Observation>
            <id value="2-vitalstatus"/>
            <meta>
               <profile value="http://dktk.dkfz.de/fhir/StructureDefinition/onco-core-Observation-Vitalstatus"/>
            </meta>
            <status value="registered"/>
            <code>
               <coding>
                  <system value="http://loinc.org"/>
                  <code value="75186-7"/>
               </coding>
            </code>
            <subject>
               <reference value="Patient/2"/>
            </subject>
            <effectiveDateTime value="--"/>
            <valueCodeableConcept>
               <coding>
                  <system value="http://dktk.dkfz.de/fhir/onco/core/CodeSystem/VitalstatusCS"/>
                  <code value="lebend"/>
               </coding>
            </valueCodeableConcept>
         </Observation>
      </resource>
      <request>
         <method value="PUT"/>
         <url value="Observation/2-vitalstatus"/>
      </request>
   </entry>
   <entry>
      <fullUrl value="http://example.com/Condition/1"/>
      <resource>
         <Condition>
            <id value="1"/>
            <meta>
               <profile value="http://dktk.dkfz.de/fhir/StructureDefinition/onco-core-Condition-Primaerdiagnose"/>
            </meta>
            <code>
               <coding>
                  <system value=""/>
                  <version value=""/>
                  <code value=""/>
               </coding>
            </code>
            <bodySite>
               <coding>
                  <system value="urn:oid:2.16.840.1.113883.6.43.1"/>
                  <version value=""/>
                  <code value=""/>
               </coding>
               <coding>
                  <system value="http://dktk.dkfz.de/fhir/onco/core/CodeSystem/SeitenlokalisationCS"/>
                  <code value=""/>
               </coding>
            </bodySite>
            <subject>
               <reference value="Patient/2"/>
            </subject>
            <onsetAge>
               <value value=""/>
               <unit value="Jahre"/>
               <system value="http://unitsofmeasure.org"/>
               <code value="a"/>
            </onsetAge>
            <recordedDate value="--"/>
            <evidence/>
         </Condition>
      </resource>
      <request>
         <method value="PUT"/>
         <url value="Condition/1"/>
      </request>
   </entry>
   <entry>
      <fullUrl value="http://example.com/Procedure/1"/>
      <resource>
         <Procedure>
            <id value="1"/>
            <meta>
               <profile value="http://dktk.dkfz.de/fhir/StructureDefinition/onco-core-Procedure-Operation"/>
            </meta>
            <extension url="http://dktk.dkfz.de/fhir/StructureDefinition/onco-core-Extension-OPIntention">
               <valueCodeableConcept>
                  <coding>
                     <system value="http://dktk.dkfz.de/fhir/onco/core/CodeSystem/OPIntentionCS"/>
                     <code value="X"/>
                  </coding>
               </valueCodeableConcept>
            </extension>
            <status value="completed"/>
            <category>
               <coding>
                  <system value="http://dktk.dkfz.de/fhir/onco/core/CodeSystem/SYSTTherapieartCS"/>
                  <code value="OP"/>
                  <display value="Operation"/>
               </coding>
            </category>
            <code/>
            <subject>
               <reference value="Patient/2"/>
            </subject>
            <reasonReference>
               <reference value="Condition/1"/>
            </reasonReference>
            <outcome>
               <coding>
                  <system value="http://dktk.dkfz.de/fhir/onco/core/CodeSystem/LokaleBeurteilungResidualstatusCS"/>
                  <code value="RX"/>
               </coding>
            </outcome>
         </Procedure>
      </resource>
      <request>
         <method value="PUT"/>
         <url value="Procedure/1"/>
      </request>
   </entry>
</Bundle>
