<Bundle xmlns="http://hl7.org/fhir" xmlns:hash="java:de.samply.obds2fhir">
   <id value="653ae947f9c1f8f6"/>
   <type value="transaction"/>
   <entry>
      <fullUrl value="http://example.com/Patient/653ae947f9c1f8f6"/>
      <resource>
         <Patient>
            <id value="653ae947f9c1f8f6"/>
            <meta>
               <profile value="http://dktk.dkfz.de/fhir/StructureDefinition/onco-core-Patient-Patient"/>
            </meta>
            <identifier>
               <type>
                  <coding>
                     <system value="http://dktk.dkfz.de/fhir/onco/core/CodeSystem/PseudonymArtCS"/>
                     <code value="Lokal"/>
                  </coding>
               </type>
               <value value="0d89def85aa43aafe862a3049ab72ded"/>
            </identifier>
            <gender value="male"/>
            <birthDate value="1980-07-03"/>
         </Patient>
      </resource>
      <request>
         <method value="PUT"/>
         <url value="Patient/653ae947f9c1f8f6"/>
      </request>
   </entry>
   <entry>
      <fullUrl value="http://example.com/Specimen/bioa823f38f3f764a89"/>
      <resource>
         <Specimen>
            <id value="bioa823f38f3f764a89"/>
            <meta>
               <profile value="https://fhir.bbmri.de/StructureDefinition/Specimen"/>
            </meta>
            <type>
               <coding>
                  <system value="https://fhir.bbmri.de/CodeSystem/SampleMaterialType"/>
                  <code value="liquid-other"/>
               </coding>
            </type>
            <subject>
               <reference value="Patient/653ae947f9c1f8f6"/>
            </subject>
            <collection>
               <collectedDateTime value="2021-07-16"/>
            </collection>
         </Specimen>
      </resource>
      <request>
         <method value="PUT"/>
         <url value="Specimen/bioa823f38f3f764a89"/>
      </request>
   </entry>
   <entry>
      <fullUrl value="http://example.com/Condition/digc8edfdcb9555eed6"/>
      <resource>
         <Condition>
            <id value="digc8edfdcb9555eed6"/>
            <meta>
               <profile value="http://dktk.dkfz.de/fhir/StructureDefinition/onco-core-Condition-Primaerdiagnose"/>
            </meta>
            <extension url="http://dktk.dkfz.de/fhir/StructureDefinition/onco-core-Extension-Fernmetastasen">
               <valueReference>
                  <reference value="Observation/fm690137d27a9c916a"/>
               </valueReference>
            </extension>
            <extension url="http://dktk.dkfz.de/fhir/StructureDefinition/onco-core-Extension-Fernmetastasen">
               <valueReference>
                  <reference value="Observation/fmd0fa9f83512be54f"/>
               </valueReference>
            </extension>
            <extension url="http://dktk.dkfz.de/fhir/StructureDefinition/onco-core-Extension-Fernmetastasen">
               <valueReference>
                  <reference value="Observation/fm35ae8f5ed12275da"/>
               </valueReference>
            </extension>
            <code>
               <coding>
                  <system value="http://fhir.de/CodeSystem/bfarm/icd-10-gm"/>
                  <version value="2004"/>
                  <code value="C61"/>
               </coding>
               <text value="Primaertumor_Diagnosetext0"/>
            </code>
            <bodySite>
               <coding>
                  <system value="urn:oid:2.16.840.1.113883.6.43.1"/>
                  <version value="31"/>
                  <code value="C61.0"/>
                  <display value="Primaertumor_Topographie_ICD_O_Freitext0"/>
               </coding>
               <coding>
                  <system value="http://dktk.dkfz.de/fhir/onco/core/CodeSystem/SeitenlokalisationCS"/>
                  <code value="L"/>
               </coding>
            </bodySite>
            <subject>
               <reference value="Patient/653ae947f9c1f8f6"/>
            </subject>
            <onsetDateTime value="2021-03-12"/>
            <recordedDate value="2021-03-12"/>
            <stage>
               <assessment>
                  <reference value="Observation/ctnm9703e136bf80bded"/>
               </assessment>
            </stage>
            <stage>
               <assessment>
                  <reference value="Observation/ptnm23a2e14771a10ff6"/>
               </assessment>
            </stage>
            <evidence>
               <coding>
                  <system value="http://dktk.dkfz.de/fhir/onco/core/CodeSystem/DiagnosesicherungCS"/>
                  <code value="1"/>
               </coding>
               <detail>
                  <reference value="Observation/hist9703e136bf80bded"/>
               </detail>
               <detail>
                  <reference value="Observation/hist23a2e14771a10ff6"/>
               </detail>
            </evidence>
         </Condition>
      </resource>
      <request>
         <method value="PUT"/>
         <url value="Condition/digc8edfdcb9555eed6"/>
      </request>
   </entry>
   <entry>
      <fullUrl value="http://example.com/Observation/hist9703e136bf80bded"/>
      <resource>
         <Observation>
            <id value="hist9703e136bf80bded"/>
            <meta>
               <profile value="http://dktk.dkfz.de/fhir/StructureDefinition/onco-core-Observation-Histologie"/>
            </meta>
            <status value="final"/>
            <code>
               <coding>
                  <system value="http://loinc.org"/>
                  <code value="59847-4"/>
               </coding>
            </code>
            <subject>
               <reference value="Patient/653ae947f9c1f8f6"/>
            </subject>
            <focus>
               <reference value="Condition/digc8edfdcb9555eed6"/>
            </focus>
            <effectiveDateTime value="2021-03-14"/>
            <valueCodeableConcept>
               <coding>
                  <system value="urn:oid:2.16.840.1.113883.6.43.1"/>
                  <version value="31"/>
                  <code value="8140/3"/>
               </coding>
               <text value="Morphologie_Freitext0"/>
            </valueCodeableConcept>
            <hasMember>
               <reference value="Observation/ba300ddd3ab159d1"/>
            </hasMember>
         </Observation>
      </resource>
      <request>
         <method value="PUT"/>
         <url value="Observation/hist9703e136bf80bded"/>
      </request>
   </entry>
   <entry>
      <fullUrl value="http://example.com/Observation/ba300ddd3ab159d1"/>
      <resource>
         <Observation>
            <id value="ba300ddd3ab159d1"/>
            <meta>
               <profile value="http://dktk.dkfz.de/fhir/StructureDefinition/onco-core-Observation-Grading"/>
            </meta>
            <status value="final"/>
            <code>
               <coding>
                  <system value="http://loinc.org"/>
                  <code value="59542-1"/>
               </coding>
            </code>
            <subject>
               <reference value="Patient/653ae947f9c1f8f6"/>
            </subject>
            <focus>
               <reference value="Condition/digc8edfdcb9555eed6"/>
            </focus>
            <valueCodeableConcept>
               <coding>
                  <system value="http://dktk.dkfz.de/fhir/onco/core/CodeSystem/GradingCS"/>
                  <code value="1"/>
               </coding>
            </valueCodeableConcept>
         </Observation>
      </resource>
      <request>
         <method value="PUT"/>
         <url value="Observation/ba300ddd3ab159d1"/>
      </request>
   </entry>
   <entry>
      <fullUrl value="http://example.com/Observation/hist23a2e14771a10ff6"/>
      <resource>
         <Observation>
            <id value="hist23a2e14771a10ff6"/>
            <meta>
               <profile value="http://dktk.dkfz.de/fhir/StructureDefinition/onco-core-Observation-Histologie"/>
            </meta>
            <status value="final"/>
            <code>
               <coding>
                  <system value="http://loinc.org"/>
                  <code value="59847-4"/>
               </coding>
            </code>
            <subject>
               <reference value="Patient/653ae947f9c1f8f6"/>
            </subject>
            <focus>
               <reference value="Condition/digc8edfdcb9555eed6"/>
            </focus>
            <effectiveDateTime value="2021-03-14"/>
            <valueCodeableConcept>
               <coding>
                  <system value="urn:oid:2.16.840.1.113883.6.43.1"/>
                  <version value="31"/>
                  <code value="8147/3"/>
               </coding>
               <text value="Morphologie_Freitext0"/>
            </valueCodeableConcept>
            <hasMember>
               <reference value="Observation/1598e0261d3f8b70"/>
            </hasMember>
         </Observation>
      </resource>
      <request>
         <method value="PUT"/>
         <url value="Observation/hist23a2e14771a10ff6"/>
      </request>
   </entry>
   <entry>
      <fullUrl value="http://example.com/Observation/1598e0261d3f8b70"/>
      <resource>
         <Observation>
            <id value="1598e0261d3f8b70"/>
            <meta>
               <profile value="http://dktk.dkfz.de/fhir/StructureDefinition/onco-core-Observation-Grading"/>
            </meta>
            <status value="final"/>
            <code>
               <coding>
                  <system value="http://loinc.org"/>
                  <code value="59542-1"/>
               </coding>
            </code>
            <subject>
               <reference value="Patient/653ae947f9c1f8f6"/>
            </subject>
            <focus>
               <reference value="Condition/digc8edfdcb9555eed6"/>
            </focus>
            <valueCodeableConcept>
               <coding>
                  <system value="http://dktk.dkfz.de/fhir/onco/core/CodeSystem/GradingCS"/>
                  <code value="1"/>
               </coding>
            </valueCodeableConcept>
         </Observation>
      </resource>
      <request>
         <method value="PUT"/>
         <url value="Observation/1598e0261d3f8b70"/>
      </request>
   </entry>
   <entry>
      <fullUrl value="http://example.com/Observation/fm690137d27a9c916a"/>
      <resource>
         <Observation>
            <id value="fm690137d27a9c916a"/>
            <meta>
               <profile value="http://dktk.dkfz.de/fhir/StructureDefinition/onco-core-Observation-Fernmetastasen"/>
            </meta>
            <status value="final"/>
            <code>
               <coding>
                  <system value="http://loinc.org"/>
                  <code value="21907-1"/>
               </coding>
            </code>
            <subject>
               <reference value="Patient/653ae947f9c1f8f6"/>
            </subject>
            <focus>
               <reference value="Condition/digc8edfdcb9555eed6"/>
            </focus>
            <effectiveDateTime value="2021-03-15"/>
            <valueCodeableConcept>
               <coding>
                  <system value="http://dktk.dkfz.de/fhir/onco/core/CodeSystem/JNUCS"/>
                  <code value="ja"/>
               </coding>
            </valueCodeableConcept>
            <bodySite>
               <coding>
                  <system value="http://dktk.dkfz.de/fhir/onco/core/CodeSystem/FMLokalisationCS"/>
                  <code value="BRA"/>
               </coding>
            </bodySite>
         </Observation>
      </resource>
      <request>
         <method value="PUT"/>
         <url value="Observation/fm690137d27a9c916a"/>
      </request>
   </entry>
   <entry>
      <fullUrl value="http://example.com/Observation/fmd0fa9f83512be54f"/>
      <resource>
         <Observation>
            <id value="fmd0fa9f83512be54f"/>
            <meta>
               <profile value="http://dktk.dkfz.de/fhir/StructureDefinition/onco-core-Observation-Fernmetastasen"/>
            </meta>
            <status value="final"/>
            <code>
               <coding>
                  <system value="http://loinc.org"/>
                  <code value="21907-1"/>
               </coding>
            </code>
            <subject>
               <reference value="Patient/653ae947f9c1f8f6"/>
            </subject>
            <focus>
               <reference value="Condition/digc8edfdcb9555eed6"/>
            </focus>
            <effectiveDateTime value="2021-04-15"/>
            <valueCodeableConcept>
               <coding>
                  <system value="http://dktk.dkfz.de/fhir/onco/core/CodeSystem/JNUCS"/>
                  <code value="ja"/>
               </coding>
            </valueCodeableConcept>
            <bodySite>
               <coding>
                  <system value="http://dktk.dkfz.de/fhir/onco/core/CodeSystem/FMLokalisationCS"/>
                  <code value="PUL"/>
               </coding>
            </bodySite>
         </Observation>
      </resource>
      <request>
         <method value="PUT"/>
         <url value="Observation/fmd0fa9f83512be54f"/>
      </request>
   </entry>
   <entry>
      <fullUrl value="http://example.com/Observation/fm35ae8f5ed12275da"/>
      <resource>
         <Observation>
            <id value="fm35ae8f5ed12275da"/>
            <meta>
               <profile value="http://dktk.dkfz.de/fhir/StructureDefinition/onco-core-Observation-Fernmetastasen"/>
            </meta>
            <status value="final"/>
            <code>
               <coding>
                  <system value="http://loinc.org"/>
                  <code value="21907-1"/>
               </coding>
            </code>
            <subject>
               <reference value="Patient/653ae947f9c1f8f6"/>
            </subject>
            <focus>
               <reference value="Condition/digc8edfdcb9555eed6"/>
            </focus>
            <effectiveDateTime value="2021-04-15"/>
            <valueCodeableConcept>
               <coding>
                  <system value="http://dktk.dkfz.de/fhir/onco/core/CodeSystem/JNUCS"/>
                  <code value="ja"/>
               </coding>
            </valueCodeableConcept>
            <bodySite>
               <coding>
                  <system value="http://dktk.dkfz.de/fhir/onco/core/CodeSystem/FMLokalisationCS"/>
                  <code value="OSS"/>
               </coding>
            </bodySite>
         </Observation>
      </resource>
      <request>
         <method value="PUT"/>
         <url value="Observation/fm35ae8f5ed12275da"/>
      </request>
   </entry>
   <entry>
      <fullUrl value="http://example.com/Observation/ctnm9703e136bf80bded"/>
      <resource>
         <Observation>
            <id value="ctnm9703e136bf80bded"/>
            <meta>
               <profile value="http://dktk.dkfz.de/fhir/StructureDefinition/onco-core-Observation-TNMc"/>
            </meta>
            <status value="final"/>
            <code>
               <coding>
                  <system value="http://loinc.org"/>
                  <code value="21908-9"/>
               </coding>
            </code>
            <subject>
               <reference value="Patient/653ae947f9c1f8f6"/>
            </subject>
            <focus>
               <reference value="Condition/digc8edfdcb9555eed6"/>
            </focus>
            <effectiveDateTime value="2021-03-16"/>
            <component>
               <extension url="http://dktk.dkfz.de/fhir/StructureDefinition/onco-core-Extension-TNMcpuPraefix">
                  <valueCodeableConcept>
                     <coding>
                        <code value="c"/>
                     </coding>
                  </valueCodeableConcept>
               </extension>
               <extension/>
               <code>
                  <coding>
                     <system value="http://loinc.org"/>
                     <code value="21905-5"/>
                  </coding>
               </code>
               <valueCodeableConcept>
                  <coding>
                     <system value="http://dktk.dkfz.de/fhir/onco/core/CodeSystem/TNMTCS"/>
                     <code value="4e"/>
                     <version value="6"/>
                  </coding>
               </valueCodeableConcept>
            </component>
            <component>
               <extension url="http://dktk.dkfz.de/fhir/StructureDefinition/onco-core-Extension-TNMcpuPraefix">
                  <valueCodeableConcept>
                     <coding>
                        <code value="c"/>
                     </coding>
                  </valueCodeableConcept>
               </extension>
               <extension/>
               <code>
                  <coding>
                     <system value="http://loinc.org"/>
                     <code value="21906-3"/>
                  </coding>
               </code>
               <valueCodeableConcept>
                  <coding>
                     <system value="http://dktk.dkfz.de/fhir/onco/core/CodeSystem/TNMNCS"/>
                     <code value="(sn)(mol+)"/>
                     <version value="6"/>
                  </coding>
               </valueCodeableConcept>
            </component>
            <component>
               <extension url="http://dktk.dkfz.de/fhir/StructureDefinition/onco-core-Extension-TNMcpuPraefix">
                  <valueCodeableConcept>
                     <coding>
                        <code value="c"/>
                     </coding>
                  </valueCodeableConcept>
               </extension>
               <extension/>
               <code>
                  <coding>
                     <system value="http://loinc.org"/>
                     <code value="21907-1"/>
                  </coding>
               </code>
               <valueCodeableConcept>
                  <coding>
                     <system value="http://dktk.dkfz.de/fhir/onco/core/CodeSystem/TNMMCS"/>
                     <code value="2(cy-)"/>
                     <version value="6"/>
                  </coding>
               </valueCodeableConcept>
            </component>
            <component>
               <code>
                  <coding>
                     <system value="http://loinc.org"/>
                     <code value="59479-6"/>
                  </coding>
               </code>
               <valueCodeableConcept>
                  <coding>
                     <system value="http://dktk.dkfz.de/fhir/onco/core/CodeSystem/TNMySymbolCS"/>
                     <code value="y"/>
                  </coding>
               </valueCodeableConcept>
            </component>
            <component>
               <code>
                  <coding>
                     <system value="http://loinc.org"/>
                     <code value="21983-2"/>
                  </coding>
               </code>
               <valueCodeableConcept>
                  <coding>
                     <system value="http://dktk.dkfz.de/fhir/onco/core/CodeSystem/TNMrSymbolCS"/>
                     <code value="r"/>
                  </coding>
               </valueCodeableConcept>
            </component>
            <component>
               <code>
                  <coding>
                     <system value="http://loinc.org"/>
                     <code value="42030-7"/>
                  </coding>
               </code>
               <valueCodeableConcept>
                  <coding>
                     <system value="http://dktk.dkfz.de/fhir/onco/core/CodeSystem/TNMmSymbolCS"/>
                     <code value="2"/>
                  </coding>
               </valueCodeableConcept>
            </component>
         </Observation>
      </resource>
      <request>
         <method value="PUT"/>
         <url value="Observation/ctnm9703e136bf80bded"/>
      </request>
   </entry>
   <entry>
      <fullUrl value="http://example.com/Observation/ptnm23a2e14771a10ff6"/>
      <resource>
         <Observation>
            <id value="ptnm23a2e14771a10ff6"/>
            <meta>
               <profile value="http://dktk.dkfz.de/fhir/StructureDefinition/onco-core-Observation-TNMp"/>
            </meta>
            <status value="final"/>
            <code>
               <coding>
                  <system value="http://loinc.org"/>
                  <code value="21902-2"/>
               </coding>
            </code>
            <subject>
               <reference value="Patient/653ae947f9c1f8f6"/>
            </subject>
            <focus>
               <reference value="Condition/digc8edfdcb9555eed6"/>
            </focus>
            <effectiveDateTime value="1991-03-16"/>
            <component>
               <extension url="http://dktk.dkfz.de/fhir/StructureDefinition/onco-core-Extension-TNMcpuPraefix">
                  <valueCodeableConcept>
                     <coding>
                        <code value="p"/>
                     </coding>
                  </valueCodeableConcept>
               </extension>
               <extension/>
               <code>
                  <coding>
                     <system value="http://loinc.org"/>
                     <code value="21899-0"/>
                  </coding>
               </code>
               <valueCodeableConcept>
                  <coding>
                     <system value="http://dktk.dkfz.de/fhir/onco/core/CodeSystem/TNMTCS"/>
                     <code value="4e"/>
                     <version value="6"/>
                  </coding>
               </valueCodeableConcept>
            </component>
            <component>
               <extension url="http://dktk.dkfz.de/fhir/StructureDefinition/onco-core-Extension-TNMcpuPraefix">
                  <valueCodeableConcept>
                     <coding>
                        <code value="p"/>
                     </coding>
                  </valueCodeableConcept>
               </extension>
               <extension/>
               <code>
                  <coding>
                     <system value="http://loinc.org"/>
                     <code value="21900-6"/>
                  </coding>
               </code>
               <valueCodeableConcept>
                  <coding>
                     <system value="http://dktk.dkfz.de/fhir/onco/core/CodeSystem/TNMNCS"/>
                     <code value="(sn)(mol+)"/>
                     <version value="6"/>
                  </coding>
               </valueCodeableConcept>
            </component>
            <component>
               <extension url="http://dktk.dkfz.de/fhir/StructureDefinition/onco-core-Extension-TNMcpuPraefix">
                  <valueCodeableConcept>
                     <coding>
                        <code value="p"/>
                     </coding>
                  </valueCodeableConcept>
               </extension>
               <extension/>
               <code>
                  <coding>
                     <system value="http://loinc.org"/>
                     <code value="21901-4"/>
                  </coding>
               </code>
               <valueCodeableConcept>
                  <coding>
                     <system value="http://dktk.dkfz.de/fhir/onco/core/CodeSystem/TNMMCS"/>
                     <code value="2(cy-)"/>
                     <version value="6"/>
                  </coding>
               </valueCodeableConcept>
            </component>
            <component>
               <code>
                  <coding>
                     <system value="http://loinc.org"/>
                     <code value="59479-6"/>
                  </coding>
               </code>
               <valueCodeableConcept>
                  <coding>
                     <system value="http://dktk.dkfz.de/fhir/onco/core/CodeSystem/TNMySymbolCS"/>
                     <code value="y"/>
                  </coding>
               </valueCodeableConcept>
            </component>
            <component>
               <code>
                  <coding>
                     <system value="http://loinc.org"/>
                     <code value="21983-2"/>
                  </coding>
               </code>
               <valueCodeableConcept>
                  <coding>
                     <system value="http://dktk.dkfz.de/fhir/onco/core/CodeSystem/TNMrSymbolCS"/>
                     <code value="r"/>
                  </coding>
               </valueCodeableConcept>
            </component>
            <component>
               <code>
                  <coding>
                     <system value="http://loinc.org"/>
                     <code value="42030-7"/>
                  </coding>
               </code>
               <valueCodeableConcept>
                  <coding>
                     <system value="http://dktk.dkfz.de/fhir/onco/core/CodeSystem/TNMmSymbolCS"/>
                     <code value="2"/>
                  </coding>
               </valueCodeableConcept>
            </component>
         </Observation>
      </resource>
      <request>
         <method value="PUT"/>
         <url value="Observation/ptnm23a2e14771a10ff6"/>
      </request>
   </entry>
   <entry>
      <fullUrl value="http://example.com/Procedure/op9703e136bf80bded"/>
      <resource>
         <Procedure>
            <id value="op9703e136bf80bded"/>
            <meta>
               <profile value="http://dktk.dkfz.de/fhir/StructureDefinition/onco-core-Procedure-Operation"/>
            </meta>
            <extension url="http://dktk.dkfz.de/fhir/StructureDefinition/onco-core-Extension-OPIntention">
               <valueCodeableConcept>
                  <coding>
                     <system value="http://dktk.dkfz.de/fhir/onco/core/CodeSystem/OPIntentionCS"/>
                     <code value="K"/>
                  </coding>
               </valueCodeableConcept>
            </extension>
            <status value="completed"/>
            <category>
               <coding>
                  <system value="http://dktk.dkfz.de/fhir/onco/core/CodeSystem/SYSTTherapieartCS"/>
                  <code value="OP"/>
                  <display value="Operation"/>
               </coding>
            </category>
            <code>
               <coding>
                  <system value="http://fhir.de/CodeSystem/bfarm/ops"/>
                  <version value="2020"/>
                  <code value="8-030.0"/>
               </coding>
               <coding>
                  <system value="http://fhir.de/CodeSystem/bfarm/ops"/>
                  <version value="2020"/>
                  <code value="8-030.1"/>
               </coding>
            </code>
            <subject>
               <reference value="Patient/653ae947f9c1f8f6"/>
            </subject>
            <performedDateTime value="2021-04-01"/>
            <reasonReference>
               <reference value="Condition/digc8edfdcb9555eed6"/>
            </reasonReference>
            <outcome>
               <coding>
                  <system value="http://dktk.dkfz.de/fhir/onco/core/CodeSystem/LokaleBeurteilungResidualstatusCS"/>
                  <code value="R1"/>
               </coding>
               <coding>
                  <system value="http://dktk.dkfz.de/fhir/onco/core/CodeSystem/GesamtbeurteilungResidualstatusCS"/>
                  <code value="R1"/>
               </coding>
            </outcome>
            <complication>
               <coding>
                  <system value="http://fhir.de/ValueSet/bfarm/icd-10-gm"/>
                  <code value="N"/>
               </coding>
            </complication>
         </Procedure>
      </resource>
      <request>
         <method value="PUT"/>
         <url value="Procedure/op9703e136bf80bded"/>
      </request>
   </entry>
   <entry>
      <fullUrl value="http://example.com/Observation/hist500ea452ba205922"/>
      <resource>
         <Observation>
            <id value="hist500ea452ba205922"/>
            <meta>
               <profile value="http://dktk.dkfz.de/fhir/StructureDefinition/onco-core-Observation-Histologie"/>
            </meta>
            <status value="final"/>
            <code>
               <coding>
                  <system value="http://loinc.org"/>
                  <code value="59847-4"/>
               </coding>
            </code>
            <subject>
               <reference value="Patient/653ae947f9c1f8f6"/>
            </subject>
            <focus>
               <reference value="Condition/digc8edfdcb9555eed6"/>
            </focus>
            <effectiveDateTime value="2021-04-03"/>
            <valueCodeableConcept>
               <coding>
                  <system value="urn:oid:2.16.840.1.113883.6.43.1"/>
                  <version value="31"/>
                  <code value="8140/3"/>
               </coding>
               <text value="Morphologie_Freitext2"/>
            </valueCodeableConcept>
            <hasMember>
               <reference value="Observation/024237a5053cd098"/>
            </hasMember>
         </Observation>
      </resource>
      <request>
         <method value="PUT"/>
         <url value="Observation/hist500ea452ba205922"/>
      </request>
   </entry>
   <entry>
      <fullUrl value="http://example.com/Observation/024237a5053cd098"/>
      <resource>
         <Observation>
            <id value="024237a5053cd098"/>
            <meta>
               <profile value="http://dktk.dkfz.de/fhir/StructureDefinition/onco-core-Observation-Grading"/>
            </meta>
            <status value="final"/>
            <code>
               <coding>
                  <system value="http://loinc.org"/>
                  <code value="59542-1"/>
               </coding>
            </code>
            <subject>
               <reference value="Patient/653ae947f9c1f8f6"/>
            </subject>
            <focus>
               <reference value="Condition/digc8edfdcb9555eed6"/>
            </focus>
            <valueCodeableConcept>
               <coding>
                  <system value="http://dktk.dkfz.de/fhir/onco/core/CodeSystem/GradingCS"/>
                  <code value="2"/>
               </coding>
            </valueCodeableConcept>
         </Observation>
      </resource>
      <request>
         <method value="PUT"/>
         <url value="Observation/024237a5053cd098"/>
      </request>
   </entry>
   <entry>
      <fullUrl value="http://example.com/Observation/tnm500ea452ba205922"/>
      <resource>
         <Observation>
            <id value="tnm500ea452ba205922"/>
            <meta>
               <profile value="http://dktk.dkfz.de/fhir/StructureDefinition/onco-core-Observation-TNMp"/>
            </meta>
            <status value="final"/>
            <code>
               <coding>
                  <system value="http://loinc.org"/>
                  <code value="21902-2"/>
               </coding>
            </code>
            <subject>
               <reference value="Patient/653ae947f9c1f8f6"/>
            </subject>
            <focus>
               <reference value="Condition/digc8edfdcb9555eed6"/>
            </focus>
            <effectiveDateTime value="2021-04-04"/>
            <valueCodeableConcept>
               <coding>
                  <system value="http://dktk.dkfz.de/fhir/onco/core/CodeSystem/UiccstadiumCS"/>
                  <version value="6"/>
                  <code value="0"/>
               </coding>
            </valueCodeableConcept>
            <component>
               <extension url="http://dktk.dkfz.de/fhir/StructureDefinition/onco-core-Extension-TNMcpuPraefix">
                  <valueCodeableConcept>
                     <coding>
                        <code value="p"/>
                     </coding>
                  </valueCodeableConcept>
               </extension>
               <extension/>
               <code>
                  <coding>
                     <system value="http://loinc.org"/>
                     <code value="21899-0"/>
                  </coding>
               </code>
               <valueCodeableConcept>
                  <coding>
                     <system value="http://dktk.dkfz.de/fhir/onco/core/CodeSystem/TNMTCS"/>
                     <code value="4e"/>
                     <version value="6"/>
                  </coding>
               </valueCodeableConcept>
            </component>
            <component>
               <extension url="http://dktk.dkfz.de/fhir/StructureDefinition/onco-core-Extension-TNMcpuPraefix">
                  <valueCodeableConcept>
                     <coding>
                        <code value="p"/>
                     </coding>
                  </valueCodeableConcept>
               </extension>
               <extension/>
               <code>
                  <coding>
                     <system value="http://loinc.org"/>
                     <code value="21900-6"/>
                  </coding>
               </code>
               <valueCodeableConcept>
                  <coding>
                     <system value="http://dktk.dkfz.de/fhir/onco/core/CodeSystem/TNMNCS"/>
                     <code value="(sn)(mol+)"/>
                     <version value="6"/>
                  </coding>
               </valueCodeableConcept>
            </component>
            <component>
               <extension url="http://dktk.dkfz.de/fhir/StructureDefinition/onco-core-Extension-TNMcpuPraefix">
                  <valueCodeableConcept>
                     <coding>
                        <code value="p"/>
                     </coding>
                  </valueCodeableConcept>
               </extension>
               <extension/>
               <code>
                  <coding>
                     <system value="http://loinc.org"/>
                     <code value="21901-4"/>
                  </coding>
               </code>
               <valueCodeableConcept>
                  <coding>
                     <system value="http://dktk.dkfz.de/fhir/onco/core/CodeSystem/TNMMCS"/>
                     <code value="2(cy-)"/>
                     <version value="6"/>
                  </coding>
               </valueCodeableConcept>
            </component>
            <component>
               <code>
                  <coding>
                     <system value="http://loinc.org"/>
                     <code value="59479-6"/>
                  </coding>
               </code>
               <valueCodeableConcept>
                  <coding>
                     <system value="http://dktk.dkfz.de/fhir/onco/core/CodeSystem/TNMySymbolCS"/>
                     <code value="y"/>
                  </coding>
               </valueCodeableConcept>
            </component>
            <component>
               <code>
                  <coding>
                     <system value="http://loinc.org"/>
                     <code value="21983-2"/>
                  </coding>
               </code>
               <valueCodeableConcept>
                  <coding>
                     <system value="http://dktk.dkfz.de/fhir/onco/core/CodeSystem/TNMrSymbolCS"/>
                     <code value="r"/>
                  </coding>
               </valueCodeableConcept>
            </component>
            <component>
               <code>
                  <coding>
                     <system value="http://loinc.org"/>
                     <code value="42030-7"/>
                  </coding>
               </code>
               <valueCodeableConcept>
                  <coding>
                     <system value="http://dktk.dkfz.de/fhir/onco/core/CodeSystem/TNMmSymbolCS"/>
                     <code value="TNM_m_Symbol2"/>
                  </coding>
               </valueCodeableConcept>
            </component>
         </Observation>
      </resource>
      <request>
         <method value="PUT"/>
         <url value="Observation/tnm500ea452ba205922"/>
      </request>
   </entry>
   <entry>
      <fullUrl value="http://example.com/Procedure/op23a2e14771a10ff6"/>
      <resource>
         <Procedure>
            <id value="op23a2e14771a10ff6"/>
            <meta>
               <profile value="http://dktk.dkfz.de/fhir/StructureDefinition/onco-core-Procedure-Operation"/>
            </meta>
            <extension url="http://dktk.dkfz.de/fhir/StructureDefinition/onco-core-Extension-OPIntention">
               <valueCodeableConcept>
                  <coding>
                     <system value="http://dktk.dkfz.de/fhir/onco/core/CodeSystem/OPIntentionCS"/>
                     <code value="K"/>
                  </coding>
               </valueCodeableConcept>
            </extension>
            <status value="completed"/>
            <category>
               <coding>
                  <system value="http://dktk.dkfz.de/fhir/onco/core/CodeSystem/SYSTTherapieartCS"/>
                  <code value="OP"/>
                  <display value="Operation"/>
               </coding>
            </category>
            <code/>
            <subject>
               <reference value="Patient/653ae947f9c1f8f6"/>
            </subject>
            <performedDateTime value="2021-04-09"/>
            <reasonReference>
               <reference value="Condition/digc8edfdcb9555eed6"/>
            </reasonReference>
            <outcome>
               <coding>
                  <system value="http://dktk.dkfz.de/fhir/onco/core/CodeSystem/LokaleBeurteilungResidualstatusCS"/>
                  <code value="R1"/>
               </coding>
               <coding>
                  <system value="http://dktk.dkfz.de/fhir/onco/core/CodeSystem/GesamtbeurteilungResidualstatusCS"/>
                  <code value="R1"/>
               </coding>
            </outcome>
         </Procedure>
      </resource>
      <request>
         <method value="PUT"/>
         <url value="Procedure/op23a2e14771a10ff6"/>
      </request>
   </entry>
   <entry>
      <fullUrl value="http://example.com/Observation/hist608ddf47e60bd663"/>
      <resource>
         <Observation>
            <id value="hist608ddf47e60bd663"/>
            <meta>
               <profile value="http://dktk.dkfz.de/fhir/StructureDefinition/onco-core-Observation-Histologie"/>
            </meta>
            <status value="final"/>
            <code>
               <coding>
                  <system value="http://loinc.org"/>
                  <code value="59847-4"/>
               </coding>
            </code>
            <subject>
               <reference value="Patient/653ae947f9c1f8f6"/>
            </subject>
            <focus>
               <reference value="Condition/digc8edfdcb9555eed6"/>
            </focus>
            <effectiveDateTime value="2021-04-09"/>
            <valueCodeableConcept>
               <coding>
                  <system value="urn:oid:2.16.840.1.113883.6.43.1"/>
                  <version value="31"/>
                  <code value="8140/3"/>
               </coding>
               <text value="Morphologie_Freitext3"/>
            </valueCodeableConcept>
            <hasMember>
               <reference value="Observation/0729b7b191376b53"/>
            </hasMember>
         </Observation>
      </resource>
      <request>
         <method value="PUT"/>
         <url value="Observation/hist608ddf47e60bd663"/>
      </request>
   </entry>
   <entry>
      <fullUrl value="http://example.com/Observation/0729b7b191376b53"/>
      <resource>
         <Observation>
            <id value="0729b7b191376b53"/>
            <meta>
               <profile value="http://dktk.dkfz.de/fhir/StructureDefinition/onco-core-Observation-Grading"/>
            </meta>
            <status value="final"/>
            <code>
               <coding>
                  <system value="http://loinc.org"/>
                  <code value="59542-1"/>
               </coding>
            </code>
            <subject>
               <reference value="Patient/653ae947f9c1f8f6"/>
            </subject>
            <focus>
               <reference value="Condition/digc8edfdcb9555eed6"/>
            </focus>
            <valueCodeableConcept>
               <coding>
                  <system value="http://dktk.dkfz.de/fhir/onco/core/CodeSystem/GradingCS"/>
                  <code value="2"/>
               </coding>
            </valueCodeableConcept>
         </Observation>
      </resource>
      <request>
         <method value="PUT"/>
         <url value="Observation/0729b7b191376b53"/>
      </request>
   </entry>
   <entry>
      <fullUrl value="http://example.com/Observation/tnm608ddf47e60bd663"/>
      <resource>
         <Observation>
            <id value="tnm608ddf47e60bd663"/>
            <meta>
               <profile value="http://dktk.dkfz.de/fhir/StructureDefinition/onco-core-Observation-TNMc"/>
            </meta>
            <status value="final"/>
            <code>
               <coding>
                  <system value="http://loinc.org"/>
                  <code value="21908-9"/>
               </coding>
            </code>
            <subject>
               <reference value="Patient/653ae947f9c1f8f6"/>
            </subject>
            <focus>
               <reference value="Condition/digc8edfdcb9555eed6"/>
            </focus>
            <effectiveDateTime value="2021-04-12"/>
            <valueCodeableConcept>
               <coding>
                  <system value="http://dktk.dkfz.de/fhir/onco/core/CodeSystem/UiccstadiumCS"/>
                  <version value="6"/>
                  <code value="2"/>
               </coding>
            </valueCodeableConcept>
            <component>
               <extension url="http://dktk.dkfz.de/fhir/StructureDefinition/onco-core-Extension-TNMcpuPraefix">
                  <valueCodeableConcept>
                     <coding>
                        <code value="c"/>
                     </coding>
                  </valueCodeableConcept>
               </extension>
               <extension/>
               <code>
                  <coding>
                     <system value="http://loinc.org"/>
                     <code value="21905-5"/>
                  </coding>
               </code>
               <valueCodeableConcept>
                  <coding>
                     <system value="http://dktk.dkfz.de/fhir/onco/core/CodeSystem/TNMTCS"/>
                     <code value="4e"/>
                     <version value="6"/>
                  </coding>
               </valueCodeableConcept>
            </component>
            <component>
               <extension url="http://dktk.dkfz.de/fhir/StructureDefinition/onco-core-Extension-TNMcpuPraefix">
                  <valueCodeableConcept>
                     <coding>
                        <code value="c"/>
                     </coding>
                  </valueCodeableConcept>
               </extension>
               <extension/>
               <code>
                  <coding>
                     <system value="http://loinc.org"/>
                     <code value="21906-3"/>
                  </coding>
               </code>
               <valueCodeableConcept>
                  <coding>
                     <system value="http://dktk.dkfz.de/fhir/onco/core/CodeSystem/TNMNCS"/>
                     <code value="(sn)(mol+)"/>
                     <version value="6"/>
                  </coding>
               </valueCodeableConcept>
            </component>
            <component>
               <extension url="http://dktk.dkfz.de/fhir/StructureDefinition/onco-core-Extension-TNMcpuPraefix">
                  <valueCodeableConcept>
                     <coding>
                        <code value="c"/>
                     </coding>
                  </valueCodeableConcept>
               </extension>
               <extension/>
               <code>
                  <coding>
                     <system value="http://loinc.org"/>
                     <code value="21907-1"/>
                  </coding>
               </code>
               <valueCodeableConcept>
                  <coding>
                     <system value="http://dktk.dkfz.de/fhir/onco/core/CodeSystem/TNMMCS"/>
                     <code value="2(cy-)"/>
                     <version value="6"/>
                  </coding>
               </valueCodeableConcept>
            </component>
            <component>
               <code>
                  <coding>
                     <system value="http://loinc.org"/>
                     <code value="59479-6"/>
                  </coding>
               </code>
               <valueCodeableConcept>
                  <coding>
                     <system value="http://dktk.dkfz.de/fhir/onco/core/CodeSystem/TNMySymbolCS"/>
                     <code value="y"/>
                  </coding>
               </valueCodeableConcept>
            </component>
            <component>
               <code>
                  <coding>
                     <system value="http://loinc.org"/>
                     <code value="21983-2"/>
                  </coding>
               </code>
               <valueCodeableConcept>
                  <coding>
                     <system value="http://dktk.dkfz.de/fhir/onco/core/CodeSystem/TNMrSymbolCS"/>
                     <code value="r"/>
                  </coding>
               </valueCodeableConcept>
            </component>
            <component>
               <code>
                  <coding>
                     <system value="http://loinc.org"/>
                     <code value="42030-7"/>
                  </coding>
               </code>
               <valueCodeableConcept>
                  <coding>
                     <system value="http://dktk.dkfz.de/fhir/onco/core/CodeSystem/TNMmSymbolCS"/>
                     <code value="TNM_m_Symbol3"/>
                  </coding>
               </valueCodeableConcept>
            </component>
         </Observation>
      </resource>
      <request>
         <method value="PUT"/>
         <url value="Observation/tnm608ddf47e60bd663"/>
      </request>
   </entry>
   <entry>
      <fullUrl value="http://example.com/Procedure/st9703e136bf80bded"/>
      <resource>
         <Procedure>
            <id value="st9703e136bf80bded"/>
            <meta>
               <profile value="http://dktk.dkfz.de/fhir/StructureDefinition/onco-core-Procedure-Strahlentherapie"/>
            </meta>
            <extension url="http://dktk.dkfz.de/fhir/StructureDefinition/onco-core-Extension-StellungZurOp">
               <valueCodeableConcept>
                  <coding>
                     <system value="http://dktk.dkfz.de/fhir/onco/core/CodeSystem/SYSTStellungOPCS"/>
                     <code value="O"/>
                  </coding>
               </valueCodeableConcept>
            </extension>
            <extension url="http://dktk.dkfz.de/fhir/StructureDefinition/onco-core-Extension-SYSTIntention">
               <valueCodeableConcept>
                  <coding>
                     <system value="http://dktk.dkfz.de/fhir/onco/core/CodeSystem/SYSTIntentionCS"/>
                     <code value="K"/>
                  </coding>
               </valueCodeableConcept>
            </extension>
            <status value="stopped"/>
            <category>
               <coding>
                  <system value="http://dktk.dkfz.de/fhir/onco/core/CodeSystem/SYSTTherapieartCS"/>
                  <code value="ST"/>
                  <display value="Strahlentherapie"/>
               </coding>
            </category>
            <code>
               <coding>
                  <system value="http://fhir.de/CodeSystem/bfarm/ops"/>
                  <code value="8-52"/>
                  <display value="Strahlentherapie"/>
               </coding>
            </code>
            <subject>
               <reference value="Patient/653ae947f9c1f8f6"/>
            </subject>
            <reasonReference>
               <reference value="Condition/digc8edfdcb9555eed6"/>
            </reasonReference>
            <outcome>
               <coding>
                  <system value="http://dktk.dkfz.de/fhir/onco/core/CodeSystem/LokaleBeurteilungResidualstatusCS"/>
                  <code value="R1"/>
               </coding>
               <coding>
                  <system value="http://dktk.dkfz.de/fhir/onco/core/CodeSystem/GesamtbeurteilungResidualstatusCS"/>
                  <code value="R0"/>
               </coding>
            </outcome>
         </Procedure>
      </resource>
      <request>
         <method value="PUT"/>
         <url value="Procedure/st9703e136bf80bded"/>
      </request>
   </entry>
   <entry>
      <fullUrl value="http://example.com/AdverseEvent/stndf2f26b2f8a0d20e"/>
      <resource>
         <AdverseEvent>
            <id value="stndf2f26b2f8a0d20e"/>
            <actuality value="actual"/>
            <event>
               <coding>
                  <system value="urn:ADT2"/>
                  <version value="4"/>
                  <code value="Nebenwirkung_Art0"/>
               </coding>
            </event>
            <subject>
               <reference value="Patient/653ae947f9c1f8f6"/>
            </subject>
            <severity>
               <coding>
                  <system value="http://hl7.org/fhir/us/ctcae/CodeSystem/ctcae-grade-code-system"/>
                  <code value="K"/>
               </coding>
            </severity>
            <suspectEntity>
               <instance>
                  <reference value="Procedure/st9703e136bf80bded"/>
               </instance>
            </suspectEntity>
         </AdverseEvent>
      </resource>
      <request>
         <method value="PUT"/>
         <url value="AdverseEvent/stndf2f26b2f8a0d20e"/>
      </request>
   </entry>
   <entry>
      <fullUrl value="http://example.com/AdverseEvent/stn33d668b571543e15"/>
      <resource>
         <AdverseEvent>
            <id value="stn33d668b571543e15"/>
            <actuality value="actual"/>
            <event>
               <coding>
                  <system value="urn:ADT2"/>
                  <version value="4"/>
                  <code value="Nebenwirkung_Art1"/>
               </coding>
            </event>
            <subject>
               <reference value="Patient/653ae947f9c1f8f6"/>
            </subject>
            <severity>
               <coding>
                  <system value="http://hl7.org/fhir/us/ctcae/CodeSystem/ctcae-grade-code-system"/>
                  <code value="K"/>
               </coding>
            </severity>
            <suspectEntity>
               <instance>
                  <reference value="Procedure/st9703e136bf80bded"/>
               </instance>
            </suspectEntity>
         </AdverseEvent>
      </resource>
      <request>
         <method value="PUT"/>
         <url value="AdverseEvent/stn33d668b571543e15"/>
      </request>
   </entry>
   <entry>
      <fullUrl value="http://example.com/Procedure/sts05be1696d334416c-0"/>
      <resource>
         <Procedure>
            <id value="sts05be1696d334416c-0"/>
            <meta>
               <profile value="http://dktk.dkfz.de/fhir/StructureDefinition/onco-core-Procedure-Strahlentherapie"/>
            </meta>
            <partOf>
               <reference value="Procedure/st9703e136bf80bded"/>
            </partOf>
            <status value="stopped"/>
            <category>
               <coding>
                  <system value="http://dktk.dkfz.de/fhir/onco/core/CodeSystem/SYSTTherapieartCS"/>
                  <code value="ST"/>
                  <display value="Strahlentherapie"/>
               </coding>
            </category>
            <code>
               <coding>
                  <system value="http://fhir.de/CodeSystem/dimdi/ops"/>
                  <code value="8-52"/>
                  <display value="Strahlentherapie"/>
               </coding>
            </code>
            <subject>
               <reference value="Patient/653ae947f9c1f8f6"/>
            </subject>
            <performedPeriod>
               <start value="2021-04-10"/>
               <end value="2021-04-12"/>
            </performedPeriod>
            <reasonReference>
               <reference value="Condition/digc8edfdcb9555eed6"/>
            </reasonReference>
         </Procedure>
      </resource>
      <request>
         <method value="PUT"/>
         <url value="Procedure/sts05be1696d334416c-0"/>
      </request>
   </entry>
   <entry>
      <fullUrl value="http://example.com/Procedure/sts1bb02564ac28410e-0"/>
      <resource>
         <Procedure>
            <id value="sts1bb02564ac28410e-0"/>
            <meta>
               <profile value="http://dktk.dkfz.de/fhir/StructureDefinition/onco-core-Procedure-Strahlentherapie"/>
            </meta>
            <partOf>
               <reference value="Procedure/st9703e136bf80bded"/>
            </partOf>
            <status value="stopped"/>
            <category>
               <coding>
                  <system value="http://dktk.dkfz.de/fhir/onco/core/CodeSystem/SYSTTherapieartCS"/>
                  <code value="ST"/>
                  <display value="Strahlentherapie"/>
               </coding>
            </category>
            <code>
               <coding>
                  <system value="http://fhir.de/CodeSystem/dimdi/ops"/>
                  <code value="8-52"/>
                  <display value="Strahlentherapie"/>
               </coding>
            </code>
            <subject>
               <reference value="Patient/653ae947f9c1f8f6"/>
            </subject>
            <performedPeriod>
               <start value="2021-04-15"/>
               <end value="2021-04-20"/>
            </performedPeriod>
            <reasonReference>
               <reference value="Condition/digc8edfdcb9555eed6"/>
            </reasonReference>
         </Procedure>
      </resource>
      <request>
         <method value="PUT"/>
         <url value="Procedure/sts1bb02564ac28410e-0"/>
      </request>
   </entry>
   <entry>
      <fullUrl value="http://example.com/Procedure/st23a2e14771a10ff6"/>
      <resource>
         <Procedure>
            <id value="st23a2e14771a10ff6"/>
            <meta>
               <profile value="http://dktk.dkfz.de/fhir/StructureDefinition/onco-core-Procedure-Strahlentherapie"/>
            </meta>
            <extension url="http://dktk.dkfz.de/fhir/StructureDefinition/onco-core-Extension-StellungZurOp">
               <valueCodeableConcept>
                  <coding>
                     <system value="http://dktk.dkfz.de/fhir/onco/core/CodeSystem/SYSTStellungOPCS"/>
                     <code value="O"/>
                  </coding>
               </valueCodeableConcept>
            </extension>
            <extension url="http://dktk.dkfz.de/fhir/StructureDefinition/onco-core-Extension-SYSTIntention">
               <valueCodeableConcept>
                  <coding>
                     <system value="http://dktk.dkfz.de/fhir/onco/core/CodeSystem/SYSTIntentionCS"/>
                     <code value="K"/>
                  </coding>
               </valueCodeableConcept>
            </extension>
            <status value="stopped"/>
            <category>
               <coding>
                  <system value="http://dktk.dkfz.de/fhir/onco/core/CodeSystem/SYSTTherapieartCS"/>
                  <code value="ST"/>
                  <display value="Strahlentherapie"/>
               </coding>
            </category>
            <code>
               <coding>
                  <system value="http://fhir.de/CodeSystem/bfarm/ops"/>
                  <code value="8-52"/>
                  <display value="Strahlentherapie"/>
               </coding>
            </code>
            <subject>
               <reference value="Patient/653ae947f9c1f8f6"/>
            </subject>
            <reasonReference>
               <reference value="Condition/digc8edfdcb9555eed6"/>
            </reasonReference>
            <outcome>
               <coding>
                  <system value="http://dktk.dkfz.de/fhir/onco/core/CodeSystem/LokaleBeurteilungResidualstatusCS"/>
                  <code value="R0"/>
               </coding>
               <coding>
                  <system value="http://dktk.dkfz.de/fhir/onco/core/CodeSystem/GesamtbeurteilungResidualstatusCS"/>
                  <code value="R0"/>
               </coding>
            </outcome>
         </Procedure>
      </resource>
      <request>
         <method value="PUT"/>
         <url value="Procedure/st23a2e14771a10ff6"/>
      </request>
   </entry>
   <entry>
      <fullUrl value="http://example.com/AdverseEvent/stn0dc23eb48eb7c78f"/>
      <resource>
         <AdverseEvent>
            <id value="stn0dc23eb48eb7c78f"/>
            <actuality value="actual"/>
            <event>
               <coding>
                  <system value="urn:ADT2"/>
                  <version value="4"/>
                  <code value="Nebenwirkung_Art2"/>
               </coding>
            </event>
            <subject>
               <reference value="Patient/653ae947f9c1f8f6"/>
            </subject>
            <severity>
               <coding>
                  <system value="http://hl7.org/fhir/us/ctcae/CodeSystem/ctcae-grade-code-system"/>
                  <code value="K"/>
               </coding>
            </severity>
            <suspectEntity>
               <instance>
                  <reference value="Procedure/st23a2e14771a10ff6"/>
               </instance>
            </suspectEntity>
         </AdverseEvent>
      </resource>
      <request>
         <method value="PUT"/>
         <url value="AdverseEvent/stn0dc23eb48eb7c78f"/>
      </request>
   </entry>
   <entry>
      <fullUrl value="http://example.com/AdverseEvent/stn0840ab56e6e3669f"/>
      <resource>
         <AdverseEvent>
            <id value="stn0840ab56e6e3669f"/>
            <actuality value="actual"/>
            <event>
               <coding>
                  <system value="urn:ADT2"/>
                  <version value="4"/>
                  <code value="Nebenwirkung_Art3"/>
               </coding>
            </event>
            <subject>
               <reference value="Patient/653ae947f9c1f8f6"/>
            </subject>
            <severity>
               <coding>
                  <system value="http://hl7.org/fhir/us/ctcae/CodeSystem/ctcae-grade-code-system"/>
                  <code value="K"/>
               </coding>
            </severity>
            <suspectEntity>
               <instance>
                  <reference value="Procedure/st23a2e14771a10ff6"/>
               </instance>
            </suspectEntity>
         </AdverseEvent>
      </resource>
      <request>
         <method value="PUT"/>
         <url value="AdverseEvent/stn0840ab56e6e3669f"/>
      </request>
   </entry>
   <entry>
      <fullUrl value="http://example.com/Procedure/sts2aefe05e504f89be-0"/>
      <resource>
         <Procedure>
            <id value="sts2aefe05e504f89be-0"/>
            <meta>
               <profile value="http://dktk.dkfz.de/fhir/StructureDefinition/onco-core-Procedure-Strahlentherapie"/>
            </meta>
            <partOf>
               <reference value="Procedure/st23a2e14771a10ff6"/>
            </partOf>
            <status value="stopped"/>
            <category>
               <coding>
                  <system value="http://dktk.dkfz.de/fhir/onco/core/CodeSystem/SYSTTherapieartCS"/>
                  <code value="ST"/>
                  <display value="Strahlentherapie"/>
               </coding>
            </category>
            <code>
               <coding>
                  <system value="http://fhir.de/CodeSystem/dimdi/ops"/>
                  <code value="8-52"/>
                  <display value="Strahlentherapie"/>
               </coding>
            </code>
            <subject>
               <reference value="Patient/653ae947f9c1f8f6"/>
            </subject>
            <performedPeriod>
               <start value="2021-05-01"/>
               <end value="2021-05-04"/>
            </performedPeriod>
            <reasonReference>
               <reference value="Condition/digc8edfdcb9555eed6"/>
            </reasonReference>
         </Procedure>
      </resource>
      <request>
         <method value="PUT"/>
         <url value="Procedure/sts2aefe05e504f89be-0"/>
      </request>
   </entry>
   <entry>
      <fullUrl value="http://example.com/Procedure/sts798c9aa399bc0994-0"/>
      <resource>
         <Procedure>
            <id value="sts798c9aa399bc0994-0"/>
            <meta>
               <profile value="http://dktk.dkfz.de/fhir/StructureDefinition/onco-core-Procedure-Strahlentherapie"/>
            </meta>
            <partOf>
               <reference value="Procedure/st23a2e14771a10ff6"/>
            </partOf>
            <status value="stopped"/>
            <category>
               <coding>
                  <system value="http://dktk.dkfz.de/fhir/onco/core/CodeSystem/SYSTTherapieartCS"/>
                  <code value="ST"/>
                  <display value="Strahlentherapie"/>
               </coding>
            </category>
            <code>
               <coding>
                  <system value="http://fhir.de/CodeSystem/dimdi/ops"/>
                  <code value="8-52"/>
                  <display value="Strahlentherapie"/>
               </coding>
            </code>
            <subject>
               <reference value="Patient/653ae947f9c1f8f6"/>
            </subject>
            <performedPeriod>
               <start value="2021-05-09"/>
               <end value="2021-05-14"/>
            </performedPeriod>
            <reasonReference>
               <reference value="Condition/digc8edfdcb9555eed6"/>
            </reasonReference>
         </Procedure>
      </resource>
      <request>
         <method value="PUT"/>
         <url value="Procedure/sts798c9aa399bc0994-0"/>
      </request>
   </entry>
   <entry>
      <fullUrl value="http://example.com/MedicationStatement/syst9703e136bf80bded"/>
      <resource>
         <MedicationStatement>
            <id value="syst9703e136bf80bded"/>
            <meta>
               <profile value="http://dktk.dkfz.de/fhir/StructureDefinition/onco-core-MedicationStatement-Systemtherapie"/>
            </meta>
            <extension url="http://dktk.dkfz.de/fhir/StructureDefinition/onco-core-Extension-StellungZurOp">
               <valueCodeableConcept>
                  <coding>
                     <system value="http://dktk.dkfz.de/fhir/onco/core/CodeSystem/SYSTStellungOPCS"/>
                     <code value="O"/>
                  </coding>
               </valueCodeableConcept>
            </extension>
            <extension url="http://dktk.dkfz.de/fhir/StructureDefinition/onco-core-Extension-SYSTIntention">
               <valueCodeableConcept>
                  <coding>
                     <system value="http://dktk.dkfz.de/fhir/onco/core/CodeSystem/SYSTIntentionCS"/>
                     <code value="K"/>
                  </coding>
               </valueCodeableConcept>
            </extension>
            <extension url="http://dktk.dkfz.de/fhir/StructureDefinition/onco-core-Extension-LokaleResidualstatus">
               <valueReference>
                  <reference value="Observation/a9cf4c6f8e57db06"/>
               </valueReference>
            </extension>
            <extension url="http://dktk.dkfz.de/fhir/StructureDefinition/onco-core-Extension-GesamtbeurteilungResidualstatus">
               <valueReference>
                  <reference value="Observation/4295b13af5a0881c"/>
               </valueReference>
            </extension>
            <extension url="http://dktk.dkfz.de/fhir/StructureDefinition/onco-core-Extension-SystemischeTherapieProtokoll">
               <valueCodeableConcept>
                  <text value="SYST_Protokoll0"/>
               </valueCodeableConcept>
            </extension>
            <status value="stopped"/>
            <category>
               <coding>
                  <system value="http://dktk.dkfz.de/fhir/onco/core/CodeSystem/SYSTTherapieartCS"/>
                  <code value="CH"/>
                  <text value="CH CH"/>
               </coding>
            </category>
            <medicationCodeableConcept>
               <coding>
                  <system value="http://dktk.dkfz.de/fhir/onco/core/CodeSystem/SYSTSubstanzCS"/>
                  <code value="SYST_Substanz0"/>
               </coding>
               <coding>
                  <system value="http://dktk.dkfz.de/fhir/onco/core/CodeSystem/SYSTSubstanzCS"/>
                  <code value="SYST_Substanz1"/>
               </coding>
               <text value="SYST_Substanz0;SYST_Substanz1"/>
            </medicationCodeableConcept>
            <subject>
               <reference value="Patient/653ae947f9c1f8f6"/>
            </subject>
            <effectivePeriod>
               <start value="2021-06-12"/>
               <end value="2021-06-21"/>
            </effectivePeriod>
            <reasonReference>
               <reference value="Condition/digc8edfdcb9555eed6"/>
            </reasonReference>
         </MedicationStatement>
      </resource>
      <request>
         <method value="PUT"/>
         <url value="MedicationStatement/syst9703e136bf80bded"/>
      </request>
   </entry>
   <entry>
      <fullUrl value="http://example.com/AdverseEvent/syn61887bc55c50979a"/>
      <resource>
         <AdverseEvent>
            <id value="syn61887bc55c50979a"/>
            <actuality value="actual"/>
            <event>
               <coding>
                  <system value="urn:ADT2"/>
                  <version value="4"/>
                  <code value="Nebenwirkung_Art4"/>
               </coding>
            </event>
            <subject>
               <reference value="Patient/653ae947f9c1f8f6"/>
            </subject>
            <severity>
               <coding>
                  <system value="http://hl7.org/fhir/us/ctcae/CodeSystem/ctcae-grade-code-system"/>
                  <code value="K"/>
               </coding>
            </severity>
            <suspectEntity>
               <instance>
                  <reference value="MedicationStatement/syst9703e136bf80bded"/>
               </instance>
            </suspectEntity>
         </AdverseEvent>
      </resource>
      <request>
         <method value="PUT"/>
         <url value="AdverseEvent/syn61887bc55c50979a"/>
      </request>
   </entry>
   <entry>
      <fullUrl value="http://example.com/AdverseEvent/synd6b0a95b8ae35b9a"/>
      <resource>
         <AdverseEvent>
            <id value="synd6b0a95b8ae35b9a"/>
            <actuality value="actual"/>
            <event>
               <coding>
                  <system value="urn:ADT2"/>
                  <version value="4"/>
                  <code value="Nebenwirkung_Art5"/>
               </coding>
            </event>
            <subject>
               <reference value="Patient/653ae947f9c1f8f6"/>
            </subject>
            <severity>
               <coding>
                  <system value="http://hl7.org/fhir/us/ctcae/CodeSystem/ctcae-grade-code-system"/>
                  <code value="K"/>
               </coding>
            </severity>
            <suspectEntity>
               <instance>
                  <reference value="MedicationStatement/syst9703e136bf80bded"/>
               </instance>
            </suspectEntity>
         </AdverseEvent>
      </resource>
      <request>
         <method value="PUT"/>
         <url value="AdverseEvent/synd6b0a95b8ae35b9a"/>
      </request>
   </entry>
   <entry>
      <fullUrl value="http://example.com/Observation/4295b13af5a0881c"/>
      <resource>
         <Observation>
            <id value="4295b13af5a0881c"/>
            <meta>
               <profile value="http://dktk.dkfz.de/fhir/StructureDefinition/onco-core-Observation-GesamtbeurteilungResidualstatus"/>
            </meta>
            <status value="final"/>
            <code>
               <coding>
                  <system value="http://loinc.org"/>
                  <code value="81169-5"/>
               </coding>
            </code>
            <subject>
               <reference value="Patient/653ae947f9c1f8f6"/>
            </subject>
            <focus>
               <reference value="Condition/digc8edfdcb9555eed6"/>
            </focus>
            <valueCodeableConcept>
               <coding>
                  <system value="http://dktk.dkfz.de/fhir/onco/core/CodeSystem/GesamtbeurteilungResidualstatusCS"/>
                  <code value="R1"/>
               </coding>
            </valueCodeableConcept>
         </Observation>
      </resource>
      <request>
         <method value="PUT"/>
         <url value="Observation/4295b13af5a0881c"/>
      </request>
   </entry>
   <entry>
      <fullUrl value="http://example.com/Observation/a9cf4c6f8e57db06"/>
      <resource>
         <Observation>
            <id value="a9cf4c6f8e57db06"/>
            <meta>
               <profile value="http://dktk.dkfz.de/fhir/StructureDefinition/onco-core-Observation-LokaleBeurteilungResidualstatus"/>
            </meta>
            <status value="final"/>
            <code>
               <coding>
                  <system value="http://loinc.org"/>
                  <code value="84892-9"/>
               </coding>
            </code>
            <subject>
               <reference value="Patient/653ae947f9c1f8f6"/>
            </subject>
            <focus>
               <reference value="Condition/digc8edfdcb9555eed6"/>
            </focus>
            <valueCodeableConcept>
               <coding>
                  <system value="http://dktk.dkfz.de/fhir/onco/core/CodeSystem/LokaleBeurteilungResidualstatusCS"/>
                  <code value="R0"/>
               </coding>
            </valueCodeableConcept>
         </Observation>
      </resource>
      <request>
         <method value="PUT"/>
         <url value="Observation/a9cf4c6f8e57db06"/>
      </request>
   </entry>
   <entry>
      <fullUrl value="http://example.com/MedicationStatement/syst23a2e14771a10ff6"/>
      <resource>
         <MedicationStatement>
            <id value="syst23a2e14771a10ff6"/>
            <meta>
               <profile value="http://dktk.dkfz.de/fhir/StructureDefinition/onco-core-MedicationStatement-Systemtherapie"/>
            </meta>
            <extension url="http://dktk.dkfz.de/fhir/StructureDefinition/onco-core-Extension-StellungZurOp">
               <valueCodeableConcept>
                  <coding>
                     <system value="http://dktk.dkfz.de/fhir/onco/core/CodeSystem/SYSTStellungOPCS"/>
                     <code value="O"/>
                  </coding>
               </valueCodeableConcept>
            </extension>
            <extension url="http://dktk.dkfz.de/fhir/StructureDefinition/onco-core-Extension-SYSTIntention">
               <valueCodeableConcept>
                  <coding>
                     <system value="http://dktk.dkfz.de/fhir/onco/core/CodeSystem/SYSTIntentionCS"/>
                     <code value="K"/>
                  </coding>
               </valueCodeableConcept>
            </extension>
            <extension url="http://dktk.dkfz.de/fhir/StructureDefinition/onco-core-Extension-LokaleResidualstatus">
               <valueReference>
                  <reference value="Observation/40897960d6dc8751"/>
               </valueReference>
            </extension>
            <extension url="http://dktk.dkfz.de/fhir/StructureDefinition/onco-core-Extension-GesamtbeurteilungResidualstatus">
               <valueReference>
                  <reference value="Observation/87cc76239b2f9ff3"/>
               </valueReference>
            </extension>
            <extension url="http://dktk.dkfz.de/fhir/StructureDefinition/onco-core-Extension-SystemischeTherapieProtokoll">
               <valueCodeableConcept>
                  <text value="SYST_Protokoll1"/>
               </valueCodeableConcept>
            </extension>
            <status value="stopped"/>
            <category>
               <coding>
                  <system value="http://dktk.dkfz.de/fhir/onco/core/CodeSystem/SYSTTherapieartCS"/>
                  <code value="CH"/>
                  <text value="CH CH"/>
               </coding>
            </category>
            <medicationCodeableConcept>
               <coding>
                  <system value="http://dktk.dkfz.de/fhir/onco/core/CodeSystem/SYSTSubstanzCS"/>
                  <code value="SYST_Substanz2"/>
               </coding>
               <coding>
                  <system value="http://dktk.dkfz.de/fhir/onco/core/CodeSystem/SYSTSubstanzCS"/>
                  <code value="SYST_Substanz3"/>
               </coding>
               <text value="SYST_Substanz2;SYST_Substanz3"/>
            </medicationCodeableConcept>
            <subject>
               <reference value="Patient/653ae947f9c1f8f6"/>
            </subject>
            <effectivePeriod>
               <start value="2021-07-02"/>
               <end value="2021-07-18"/>
            </effectivePeriod>
            <reasonReference>
               <reference value="Condition/digc8edfdcb9555eed6"/>
            </reasonReference>
         </MedicationStatement>
      </resource>
      <request>
         <method value="PUT"/>
         <url value="MedicationStatement/syst23a2e14771a10ff6"/>
      </request>
   </entry>
   <entry>
      <fullUrl value="http://example.com/AdverseEvent/syn22c1cdb397fbd598"/>
      <resource>
         <AdverseEvent>
            <id value="syn22c1cdb397fbd598"/>
            <actuality value="actual"/>
            <event>
               <coding>
                  <system value="urn:ADT2"/>
                  <version value="4"/>
                  <code value="Nebenwirkung_Art6"/>
               </coding>
            </event>
            <subject>
               <reference value="Patient/653ae947f9c1f8f6"/>
            </subject>
            <severity>
               <coding>
                  <system value="http://hl7.org/fhir/us/ctcae/CodeSystem/ctcae-grade-code-system"/>
                  <code value="K"/>
               </coding>
            </severity>
            <suspectEntity>
               <instance>
                  <reference value="MedicationStatement/syst23a2e14771a10ff6"/>
               </instance>
            </suspectEntity>
         </AdverseEvent>
      </resource>
      <request>
         <method value="PUT"/>
         <url value="AdverseEvent/syn22c1cdb397fbd598"/>
      </request>
   </entry>
   <entry>
      <fullUrl value="http://example.com/AdverseEvent/syn1db98dcf87157799"/>
      <resource>
         <AdverseEvent>
            <id value="syn1db98dcf87157799"/>
            <actuality value="actual"/>
            <event>
               <coding>
                  <system value="urn:ADT2"/>
                  <version value="4"/>
                  <code value="Nebenwirkung_Art7"/>
               </coding>
            </event>
            <subject>
               <reference value="Patient/653ae947f9c1f8f6"/>
            </subject>
            <severity>
               <coding>
                  <system value="http://hl7.org/fhir/us/ctcae/CodeSystem/ctcae-grade-code-system"/>
                  <code value="K"/>
               </coding>
            </severity>
            <suspectEntity>
               <instance>
                  <reference value="MedicationStatement/syst23a2e14771a10ff6"/>
               </instance>
            </suspectEntity>
         </AdverseEvent>
      </resource>
      <request>
         <method value="PUT"/>
         <url value="AdverseEvent/syn1db98dcf87157799"/>
      </request>
   </entry>
   <entry>
      <fullUrl value="http://example.com/Observation/87cc76239b2f9ff3"/>
      <resource>
         <Observation>
            <id value="87cc76239b2f9ff3"/>
            <meta>
               <profile value="http://dktk.dkfz.de/fhir/StructureDefinition/onco-core-Observation-GesamtbeurteilungResidualstatus"/>
            </meta>
            <status value="final"/>
            <code>
               <coding>
                  <system value="http://loinc.org"/>
                  <code value="81169-5"/>
               </coding>
            </code>
            <subject>
               <reference value="Patient/653ae947f9c1f8f6"/>
            </subject>
            <focus>
               <reference value="Condition/digc8edfdcb9555eed6"/>
            </focus>
            <valueCodeableConcept>
               <coding>
                  <system value="http://dktk.dkfz.de/fhir/onco/core/CodeSystem/GesamtbeurteilungResidualstatusCS"/>
                  <code value="R0"/>
               </coding>
            </valueCodeableConcept>
         </Observation>
      </resource>
      <request>
         <method value="PUT"/>
         <url value="Observation/87cc76239b2f9ff3"/>
      </request>
   </entry>
   <entry>
      <fullUrl value="http://example.com/Observation/40897960d6dc8751"/>
      <resource>
         <Observation>
            <id value="40897960d6dc8751"/>
            <meta>
               <profile value="http://dktk.dkfz.de/fhir/StructureDefinition/onco-core-Observation-LokaleBeurteilungResidualstatus"/>
            </meta>
            <status value="final"/>
            <code>
               <coding>
                  <system value="http://loinc.org"/>
                  <code value="84892-9"/>
               </coding>
            </code>
            <subject>
               <reference value="Patient/653ae947f9c1f8f6"/>
            </subject>
            <focus>
               <reference value="Condition/digc8edfdcb9555eed6"/>
            </focus>
            <valueCodeableConcept>
               <coding>
                  <system value="http://dktk.dkfz.de/fhir/onco/core/CodeSystem/LokaleBeurteilungResidualstatusCS"/>
                  <code value="R0"/>
               </coding>
            </valueCodeableConcept>
         </Observation>
      </resource>
      <request>
         <method value="PUT"/>
         <url value="Observation/40897960d6dc8751"/>
      </request>
   </entry>
   <entry>
      <fullUrl value="http://example.com/ClinicalImpression/vrl9703e136bf80bded"/>
      <resource>
         <ClinicalImpression>
            <id value="vrl9703e136bf80bded"/>
            <meta>
               <profile value="http://dktk.dkfz.de/fhir/StructureDefinition/onco-core-ClinicalImpression-Verlauf"/>
            </meta>
            <status value="completed"/>
            <subject>
               <reference value="Patient/653ae947f9c1f8f6"/>
            </subject>
            <effectiveDateTime value="2021-06-12"/>
            <problem>
               <reference value="Condition/digc8edfdcb9555eed6"/>
            </problem>
            <finding>
               <itemReference>
                  <reference value="Observation/tnm3819c1270fab0383"/>
               </itemReference>
            </finding>
            <finding>
               <itemReference>
                  <reference value="Observation/hist3819c1270fab0383"/>
               </itemReference>
            </finding>
            <finding>
               <itemReference>
                  <reference value="Observation/fmee4737a1792baf84"/>
               </itemReference>
            </finding>
            <finding>
               <itemReference>
                  <reference value="Observation/73a9708a8fac8817"/>
               </itemReference>
            </finding>
            <finding>
               <itemReference>
                  <reference value="Observation/vrl9703e136bf80bdedkrz"/>
               </itemReference>
            </finding>
            <finding>
               <itemReference>
                  <reference value="Observation/vrl9703e136bf80bdedtsl"/>
               </itemReference>
            </finding>
            <finding>
               <itemReference>
                  <reference value="Observation/vrl9703e136bf80bdedfmn"/>
               </itemReference>
            </finding>
            <finding>
               <itemReference>
                  <reference value="Observation/vrl9703e136bf80bdedasp"/>
               </itemReference>
            </finding>
         </ClinicalImpression>
      </resource>
      <request>
         <method value="PUT"/>
         <url value="ClinicalImpression/vrl9703e136bf80bded"/>
      </request>
   </entry>
   <entry>
      <fullUrl value="http://example.com/Observation/vrl9703e136bf80bdedkrz"/>
      <resource>
         <Observation>
            <id value="vrl9703e136bf80bdedkrz"/>
            <meta>
               <profile value="http://dktk.dkfz.de/fhir/StructureDefinition/onco-core-Observation-LokalerTumorstatus"/>
            </meta>
            <status value="final"/>
            <code>
               <coding>
                  <system value="http://loinc.org"/>
                  <code value="LA4583-6"/>
               </coding>
            </code>
            <subject>
               <reference value="Patient/653ae947f9c1f8f6"/>
            </subject>
            <focus>
               <reference value="Condition/digc8edfdcb9555eed6"/>
            </focus>
            <effectiveDateTime value="2021-06-12"/>
            <valueCodeableConcept>
               <coding>
                  <system value="http://dktk.dkfz.de/fhir/onco/core/CodeSystem/VerlaufLokalerTumorstatusCS"/>
                  <code value="K"/>
               </coding>
            </valueCodeableConcept>
         </Observation>
      </resource>
      <request>
         <method value="PUT"/>
         <url value="Observation/vrl9703e136bf80bdedkrz"/>
      </request>
   </entry>
   <entry>
      <fullUrl value="http://example.com/Observation/vrl9703e136bf80bdedtsl"/>
      <resource>
         <Observation>
            <id value="vrl9703e136bf80bdedtsl"/>
            <meta>
               <profile value="http://dktk.dkfz.de/fhir/StructureDefinition/onco-core-Observation-TumorstatusLymphknoten"/>
            </meta>
            <status value="final"/>
            <code>
               <coding>
                  <system value="http://loinc.org"/>
                  <code value="LA4370-8"/>
               </coding>
            </code>
            <subject>
               <reference value="Patient/653ae947f9c1f8f6"/>
            </subject>
            <focus>
               <reference value="Condition/digc8edfdcb9555eed6"/>
            </focus>
            <effectiveDateTime value="2021-06-12"/>
            <valueCodeableConcept>
               <coding>
                  <system value="http://dktk.dkfz.de/fhir/onco/core/CodeSystem/VerlaufTumorstatusLymphknotenCS"/>
                  <code value="K"/>
               </coding>
            </valueCodeableConcept>
         </Observation>
      </resource>
      <request>
         <method value="PUT"/>
         <url value="Observation/vrl9703e136bf80bdedtsl"/>
      </request>
   </entry>
   <entry>
      <fullUrl value="http://example.com/Observation/vrl9703e136bf80bdedfmn"/>
      <resource>
         <Observation>
            <id value="vrl9703e136bf80bdedfmn"/>
            <meta>
               <profile value="http://dktk.dkfz.de/fhir/StructureDefinition/onco-core-Observation-TumorstatusFernmetastasen"/>
            </meta>
            <status value="final"/>
            <code>
               <coding>
                  <system value="http://loinc.org"/>
                  <code value="LA4226-2"/>
               </coding>
            </code>
            <subject>
               <reference value="Patient/653ae947f9c1f8f6"/>
            </subject>
            <focus>
               <reference value="Condition/digc8edfdcb9555eed6"/>
            </focus>
            <effectiveDateTime value="2021-06-12"/>
            <valueCodeableConcept>
               <coding>
                  <system value="http://dktk.dkfz.de/fhir/onco/core/CodeSystem/VerlaufTumorstatusFernmetastasenCS"/>
                  <code value="K"/>
               </coding>
            </valueCodeableConcept>
         </Observation>
      </resource>
      <request>
         <method value="PUT"/>
         <url value="Observation/vrl9703e136bf80bdedfmn"/>
      </request>
   </entry>
   <entry>
      <fullUrl value="http://example.com/Observation/vrl9703e136bf80bdedasp"/>
      <resource>
         <Observation>
            <id value="vrl9703e136bf80bdedasp"/>
            <meta>
               <profile value="http://dktk.dkfz.de/fhir/StructureDefinition/onco-core-Observation-GesamtbeurteilungTumorstatus"/>
            </meta>
            <status value="final"/>
            <code>
               <coding>
                  <system value="http://loinc.org"/>
                  <code value="21976-6"/>
               </coding>
            </code>
            <subject>
               <reference value="Patient/653ae947f9c1f8f6"/>
            </subject>
            <focus>
               <reference value="Condition/digc8edfdcb9555eed6"/>
            </focus>
            <effectiveDateTime value="2021-06-12"/>
            <valueCodeableConcept>
               <coding>
                  <system value="http://dktk.dkfz.de/fhir/onco/core/CodeSystem/GesamtbeurteilungTumorstatusCS"/>
                  <code value="V"/>
               </coding>
            </valueCodeableConcept>
         </Observation>
      </resource>
      <request>
         <method value="PUT"/>
         <url value="Observation/vrl9703e136bf80bdedasp"/>
      </request>
   </entry>
   <entry>
      <fullUrl value="http://example.com/Observation/hist3819c1270fab0383"/>
      <resource>
         <Observation>
            <id value="hist3819c1270fab0383"/>
            <meta>
               <profile value="http://dktk.dkfz.de/fhir/StructureDefinition/onco-core-Observation-Histologie"/>
            </meta>
            <status value="final"/>
            <code>
               <coding>
                  <system value="http://loinc.org"/>
                  <code value="59847-4"/>
               </coding>
            </code>
            <subject>
               <reference value="Patient/653ae947f9c1f8f6"/>
            </subject>
            <focus>
               <reference value="Condition/digc8edfdcb9555eed6"/>
            </focus>
            <effectiveDateTime value="2021-06-12"/>
            <valueCodeableConcept>
               <coding>
                  <system value="urn:oid:2.16.840.1.113883.6.43.1"/>
                  <version value="31"/>
                  <code value="8140/3"/>
               </coding>
               <text value="Morphologie_Freitext4"/>
            </valueCodeableConcept>
            <hasMember>
               <reference value="Observation/d76ae7811e131434"/>
            </hasMember>
         </Observation>
      </resource>
      <request>
         <method value="PUT"/>
         <url value="Observation/hist3819c1270fab0383"/>
      </request>
   </entry>
   <entry>
      <fullUrl value="http://example.com/Observation/d76ae7811e131434"/>
      <resource>
         <Observation>
            <id value="d76ae7811e131434"/>
            <meta>
               <profile value="http://dktk.dkfz.de/fhir/StructureDefinition/onco-core-Observation-Grading"/>
            </meta>
            <status value="final"/>
            <code>
               <coding>
                  <system value="http://loinc.org"/>
                  <code value="59542-1"/>
               </coding>
            </code>
            <subject>
               <reference value="Patient/653ae947f9c1f8f6"/>
            </subject>
            <focus>
               <reference value="Condition/digc8edfdcb9555eed6"/>
            </focus>
            <valueCodeableConcept>
               <coding>
                  <system value="http://dktk.dkfz.de/fhir/onco/core/CodeSystem/GradingCS"/>
                  <code value="0"/>
               </coding>
            </valueCodeableConcept>
         </Observation>
      </resource>
      <request>
         <method value="PUT"/>
         <url value="Observation/d76ae7811e131434"/>
      </request>
   </entry>
   <entry>
      <fullUrl value="http://example.com/Observation/tnm3819c1270fab0383"/>
      <resource>
         <Observation>
            <id value="tnm3819c1270fab0383"/>
            <meta>
               <profile value="http://dktk.dkfz.de/fhir/StructureDefinition/onco-core-Observation-TNMc"/>
            </meta>
            <status value="final"/>
            <code>
               <coding>
                  <system value="http://loinc.org"/>
                  <code value="21908-9"/>
               </coding>
            </code>
            <subject>
               <reference value="Patient/653ae947f9c1f8f6"/>
            </subject>
            <focus>
               <reference value="Condition/digc8edfdcb9555eed6"/>
            </focus>
            <effectiveDateTime value="2021-06-13"/>
            <valueCodeableConcept>
               <coding>
                  <system value="http://dktk.dkfz.de/fhir/onco/core/CodeSystem/UiccstadiumCS"/>
                  <version value="6"/>
                  <code value="0"/>
               </coding>
            </valueCodeableConcept>
            <component>
               <extension url="http://dktk.dkfz.de/fhir/StructureDefinition/onco-core-Extension-TNMcpuPraefix">
                  <valueCodeableConcept>
                     <coding>
                        <code value="c"/>
                     </coding>
                  </valueCodeableConcept>
               </extension>
               <extension/>
               <code>
                  <coding>
                     <system value="http://loinc.org"/>
                     <code value="21905-5"/>
                  </coding>
               </code>
               <valueCodeableConcept>
                  <coding>
                     <system value="http://dktk.dkfz.de/fhir/onco/core/CodeSystem/TNMTCS"/>
                     <code value="4e"/>
                     <version value="6"/>
                  </coding>
               </valueCodeableConcept>
            </component>
            <component>
               <extension url="http://dktk.dkfz.de/fhir/StructureDefinition/onco-core-Extension-TNMcpuPraefix">
                  <valueCodeableConcept>
                     <coding>
                        <code value="c"/>
                     </coding>
                  </valueCodeableConcept>
               </extension>
               <extension/>
               <code>
                  <coding>
                     <system value="http://loinc.org"/>
                     <code value="21906-3"/>
                  </coding>
               </code>
               <valueCodeableConcept>
                  <coding>
                     <system value="http://dktk.dkfz.de/fhir/onco/core/CodeSystem/TNMNCS"/>
                     <code value="(sn)(mol+)"/>
                     <version value="6"/>
                  </coding>
               </valueCodeableConcept>
            </component>
            <component>
               <extension url="http://dktk.dkfz.de/fhir/StructureDefinition/onco-core-Extension-TNMcpuPraefix">
                  <valueCodeableConcept>
                     <coding>
                        <code value="c"/>
                     </coding>
                  </valueCodeableConcept>
               </extension>
               <extension/>
               <code>
                  <coding>
                     <system value="http://loinc.org"/>
                     <code value="21907-1"/>
                  </coding>
               </code>
               <valueCodeableConcept>
                  <coding>
                     <system value="http://dktk.dkfz.de/fhir/onco/core/CodeSystem/TNMMCS"/>
                     <code value="2(cy-)"/>
                     <version value="6"/>
                  </coding>
               </valueCodeableConcept>
            </component>
            <component>
               <code>
                  <coding>
                     <system value="http://loinc.org"/>
                     <code value="59479-6"/>
                  </coding>
               </code>
               <valueCodeableConcept>
                  <coding>
                     <system value="http://dktk.dkfz.de/fhir/onco/core/CodeSystem/TNMySymbolCS"/>
                     <code value="y"/>
                  </coding>
               </valueCodeableConcept>
            </component>
            <component>
               <code>
                  <coding>
                     <system value="http://loinc.org"/>
                     <code value="21983-2"/>
                  </coding>
               </code>
               <valueCodeableConcept>
                  <coding>
                     <system value="http://dktk.dkfz.de/fhir/onco/core/CodeSystem/TNMrSymbolCS"/>
                     <code value="r"/>
                  </coding>
               </valueCodeableConcept>
            </component>
            <component>
               <code>
                  <coding>
                     <system value="http://loinc.org"/>
                     <code value="42030-7"/>
                  </coding>
               </code>
               <valueCodeableConcept>
                  <coding>
                     <system value="http://dktk.dkfz.de/fhir/onco/core/CodeSystem/TNMmSymbolCS"/>
                     <code value="TNM_m_Symbol4"/>
                  </coding>
               </valueCodeableConcept>
            </component>
         </Observation>
      </resource>
      <request>
         <method value="PUT"/>
         <url value="Observation/tnm3819c1270fab0383"/>
      </request>
   </entry>
   <entry>
      <fullUrl value="http://example.com/Observation/fmee4737a1792baf84"/>
      <resource>
         <Observation>
            <id value="fmee4737a1792baf84"/>
            <meta>
               <profile value="http://dktk.dkfz.de/fhir/StructureDefinition/onco-core-Observation-Fernmetastasen"/>
            </meta>
            <status value="final"/>
            <code>
               <coding>
                  <system value="http://loinc.org"/>
                  <code value="21907-1"/>
               </coding>
            </code>
            <subject>
               <reference value="Patient/653ae947f9c1f8f6"/>
            </subject>
            <focus>
               <reference value="Condition/digc8edfdcb9555eed6"/>
            </focus>
            <effectiveDateTime value="2021-06-12"/>
            <valueCodeableConcept>
               <coding>
                  <system value="http://dktk.dkfz.de/fhir/onco/core/CodeSystem/JNUCS"/>
                  <code value="ja"/>
               </coding>
            </valueCodeableConcept>
            <bodySite>
               <coding>
                  <system value="http://dktk.dkfz.de/fhir/onco/core/CodeSystem/FMLokalisationCS"/>
                  <code value="PUL"/>
               </coding>
            </bodySite>
         </Observation>
      </resource>
      <request>
         <method value="PUT"/>
         <url value="Observation/fmee4737a1792baf84"/>
      </request>
   </entry>
   <entry>
      <fullUrl value="http://example.com/Observation/73a9708a8fac8817"/>
      <resource>
         <Observation>
            <id value="73a9708a8fac8817"/>
            <meta>
               <profile value="http://dktk.dkfz.de/fhir/StructureDefinition/onco-core-Observation-Ecog"/>
            </meta>
            <status value="final"/>
            <code>
               <coding>
                  <system value="http://loinc.org"/>
                  <code value="89247-1"/>
               </coding>
            </code>
            <subject>
               <reference value="Patient/653ae947f9c1f8f6"/>
            </subject>
            <focus>
               <reference value="Condition/digc8edfdcb9555eed6"/>
            </focus>
            <effectiveDateTime value="2021-06-12"/>
            <valueCodeableConcept>
               <coding>
                  <system value="http://dktk.dkfz.de/fhir/onco/core/CodeSystem/EcogCS"/>
                  <code value="0"/>
               </coding>
            </valueCodeableConcept>
         </Observation>
      </resource>
      <request>
         <method value="PUT"/>
         <url value="Observation/73a9708a8fac8817"/>
      </request>
   </entry>
   <entry>
      <fullUrl value="http://example.com/ClinicalImpression/vrl500ea452ba205922"/>
      <resource>
         <ClinicalImpression>
            <id value="vrl500ea452ba205922"/>
            <meta>
               <profile value="http://dktk.dkfz.de/fhir/StructureDefinition/onco-core-ClinicalImpression-Verlauf"/>
            </meta>
            <status value="completed"/>
            <subject>
               <reference value="Patient/653ae947f9c1f8f6"/>
            </subject>
            <effectiveDateTime value="2021-08-11"/>
            <problem>
               <reference value="Condition/digc8edfdcb9555eed6"/>
            </problem>
            <finding>
               <itemReference>
                  <reference value="Observation/tnmc0c169622d5bf839"/>
               </itemReference>
            </finding>
            <finding>
               <itemReference>
                  <reference value="Observation/histc0c169622d5bf839"/>
               </itemReference>
            </finding>
            <finding>
               <itemReference>
                  <reference value="Observation/fm85ffb69151da8cc8"/>
               </itemReference>
            </finding>
            <finding>
               <itemReference>
                  <reference value="Observation/73a9708a8fac8817"/>
               </itemReference>
            </finding>
            <finding>
               <itemReference>
                  <reference value="Observation/vrl500ea452ba205922krz"/>
               </itemReference>
            </finding>
            <finding>
               <itemReference>
                  <reference value="Observation/vrl500ea452ba205922tsl"/>
               </itemReference>
            </finding>
            <finding>
               <itemReference>
                  <reference value="Observation/vrl500ea452ba205922fmn"/>
               </itemReference>
            </finding>
            <finding>
               <itemReference>
                  <reference value="Observation/vrl500ea452ba205922asp"/>
               </itemReference>
            </finding>
         </ClinicalImpression>
      </resource>
      <request>
         <method value="PUT"/>
         <url value="ClinicalImpression/vrl500ea452ba205922"/>
      </request>
   </entry>
   <entry>
      <fullUrl value="http://example.com/Observation/vrl500ea452ba205922krz"/>
      <resource>
         <Observation>
            <id value="vrl500ea452ba205922krz"/>
            <meta>
               <profile value="http://dktk.dkfz.de/fhir/StructureDefinition/onco-core-Observation-LokalerTumorstatus"/>
            </meta>
            <status value="final"/>
            <code>
               <coding>
                  <system value="http://loinc.org"/>
                  <code value="LA4583-6"/>
               </coding>
            </code>
            <subject>
               <reference value="Patient/653ae947f9c1f8f6"/>
            </subject>
            <focus>
               <reference value="Condition/digc8edfdcb9555eed6"/>
            </focus>
            <effectiveDateTime value="2021-08-11"/>
            <valueCodeableConcept>
               <coding>
                  <system value="http://dktk.dkfz.de/fhir/onco/core/CodeSystem/VerlaufLokalerTumorstatusCS"/>
                  <code value="K"/>
               </coding>
            </valueCodeableConcept>
         </Observation>
      </resource>
      <request>
         <method value="PUT"/>
         <url value="Observation/vrl500ea452ba205922krz"/>
      </request>
   </entry>
   <entry>
      <fullUrl value="http://example.com/Observation/vrl500ea452ba205922tsl"/>
      <resource>
         <Observation>
            <id value="vrl500ea452ba205922tsl"/>
            <meta>
               <profile value="http://dktk.dkfz.de/fhir/StructureDefinition/onco-core-Observation-TumorstatusLymphknoten"/>
            </meta>
            <status value="final"/>
            <code>
               <coding>
                  <system value="http://loinc.org"/>
                  <code value="LA4370-8"/>
               </coding>
            </code>
            <subject>
               <reference value="Patient/653ae947f9c1f8f6"/>
            </subject>
            <focus>
               <reference value="Condition/digc8edfdcb9555eed6"/>
            </focus>
            <effectiveDateTime value="2021-08-11"/>
            <valueCodeableConcept>
               <coding>
                  <system value="http://dktk.dkfz.de/fhir/onco/core/CodeSystem/VerlaufTumorstatusLymphknotenCS"/>
                  <code value="K"/>
               </coding>
            </valueCodeableConcept>
         </Observation>
      </resource>
      <request>
         <method value="PUT"/>
         <url value="Observation/vrl500ea452ba205922tsl"/>
      </request>
   </entry>
   <entry>
      <fullUrl value="http://example.com/Observation/vrl500ea452ba205922fmn"/>
      <resource>
         <Observation>
            <id value="vrl500ea452ba205922fmn"/>
            <meta>
               <profile value="http://dktk.dkfz.de/fhir/StructureDefinition/onco-core-Observation-TumorstatusFernmetastasen"/>
            </meta>
            <status value="final"/>
            <code>
               <coding>
                  <system value="http://loinc.org"/>
                  <code value="LA4226-2"/>
               </coding>
            </code>
            <subject>
               <reference value="Patient/653ae947f9c1f8f6"/>
            </subject>
            <focus>
               <reference value="Condition/digc8edfdcb9555eed6"/>
            </focus>
            <effectiveDateTime value="2021-08-11"/>
            <valueCodeableConcept>
               <coding>
                  <system value="http://dktk.dkfz.de/fhir/onco/core/CodeSystem/VerlaufTumorstatusFernmetastasenCS"/>
                  <code value="K"/>
               </coding>
            </valueCodeableConcept>
         </Observation>
      </resource>
      <request>
         <method value="PUT"/>
         <url value="Observation/vrl500ea452ba205922fmn"/>
      </request>
   </entry>
   <entry>
      <fullUrl value="http://example.com/Observation/vrl500ea452ba205922asp"/>
      <resource>
         <Observation>
            <id value="vrl500ea452ba205922asp"/>
            <meta>
               <profile value="http://dktk.dkfz.de/fhir/StructureDefinition/onco-core-Observation-GesamtbeurteilungTumorstatus"/>
            </meta>
            <status value="final"/>
            <code>
               <coding>
                  <system value="http://loinc.org"/>
                  <code value="21976-6"/>
               </coding>
            </code>
            <subject>
               <reference value="Patient/653ae947f9c1f8f6"/>
            </subject>
            <focus>
               <reference value="Condition/digc8edfdcb9555eed6"/>
            </focus>
            <effectiveDateTime value="2021-08-11"/>
            <valueCodeableConcept>
               <coding>
                  <system value="http://dktk.dkfz.de/fhir/onco/core/CodeSystem/GesamtbeurteilungTumorstatusCS"/>
                  <code value="V"/>
               </coding>
            </valueCodeableConcept>
         </Observation>
      </resource>
      <request>
         <method value="PUT"/>
         <url value="Observation/vrl500ea452ba205922asp"/>
      </request>
   </entry>
   <entry>
      <fullUrl value="http://example.com/Observation/histc0c169622d5bf839"/>
      <resource>
         <Observation>
            <id value="histc0c169622d5bf839"/>
            <meta>
               <profile value="http://dktk.dkfz.de/fhir/StructureDefinition/onco-core-Observation-Histologie"/>
            </meta>
            <status value="final"/>
            <code>
               <coding>
                  <system value="http://loinc.org"/>
                  <code value="59847-4"/>
               </coding>
            </code>
            <subject>
               <reference value="Patient/653ae947f9c1f8f6"/>
            </subject>
            <focus>
               <reference value="Condition/digc8edfdcb9555eed6"/>
            </focus>
            <effectiveDateTime value="2021-08-11"/>
            <valueCodeableConcept>
               <coding>
                  <system value="urn:oid:2.16.840.1.113883.6.43.1"/>
                  <version value="31"/>
                  <code value="8140/3"/>
               </coding>
               <text value="Morphologie_Freitext5"/>
            </valueCodeableConcept>
            <hasMember>
               <reference value="Observation/a6f32e457456bdce"/>
            </hasMember>
         </Observation>
      </resource>
      <request>
         <method value="PUT"/>
         <url value="Observation/histc0c169622d5bf839"/>
      </request>
   </entry>
   <entry>
      <fullUrl value="http://example.com/Observation/a6f32e457456bdce"/>
      <resource>
         <Observation>
            <id value="a6f32e457456bdce"/>
            <meta>
               <profile value="http://dktk.dkfz.de/fhir/StructureDefinition/onco-core-Observation-Grading"/>
            </meta>
            <status value="final"/>
            <code>
               <coding>
                  <system value="http://loinc.org"/>
                  <code value="59542-1"/>
               </coding>
            </code>
            <subject>
               <reference value="Patient/653ae947f9c1f8f6"/>
            </subject>
            <focus>
               <reference value="Condition/digc8edfdcb9555eed6"/>
            </focus>
            <valueCodeableConcept>
               <coding>
                  <system value="http://dktk.dkfz.de/fhir/onco/core/CodeSystem/GradingCS"/>
                  <code value="0"/>
               </coding>
            </valueCodeableConcept>
         </Observation>
      </resource>
      <request>
         <method value="PUT"/>
         <url value="Observation/a6f32e457456bdce"/>
      </request>
   </entry>
   <entry>
      <fullUrl value="http://example.com/Observation/tnmc0c169622d5bf839"/>
      <resource>
         <Observation>
            <id value="tnmc0c169622d5bf839"/>
            <meta>
               <profile value="http://dktk.dkfz.de/fhir/StructureDefinition/onco-core-Observation-TNMc"/>
            </meta>
            <status value="final"/>
            <code>
               <coding>
                  <system value="http://loinc.org"/>
                  <code value="21908-9"/>
               </coding>
            </code>
            <subject>
               <reference value="Patient/653ae947f9c1f8f6"/>
            </subject>
            <focus>
               <reference value="Condition/digc8edfdcb9555eed6"/>
            </focus>
            <effectiveDateTime value="2021-08-11"/>
            <valueCodeableConcept>
               <coding>
                  <system value="http://dktk.dkfz.de/fhir/onco/core/CodeSystem/UiccstadiumCS"/>
                  <version value="6"/>
                  <code value="0"/>
               </coding>
            </valueCodeableConcept>
            <component>
               <extension url="http://dktk.dkfz.de/fhir/StructureDefinition/onco-core-Extension-TNMcpuPraefix">
                  <valueCodeableConcept>
                     <coding>
                        <code value="c"/>
                     </coding>
                  </valueCodeableConcept>
               </extension>
               <extension/>
               <code>
                  <coding>
                     <system value="http://loinc.org"/>
                     <code value="21905-5"/>
                  </coding>
               </code>
               <valueCodeableConcept>
                  <coding>
                     <system value="http://dktk.dkfz.de/fhir/onco/core/CodeSystem/TNMTCS"/>
                     <code value="4e"/>
                     <version value="6"/>
                  </coding>
               </valueCodeableConcept>
            </component>
            <component>
               <extension url="http://dktk.dkfz.de/fhir/StructureDefinition/onco-core-Extension-TNMcpuPraefix">
                  <valueCodeableConcept>
                     <coding>
                        <code value="c"/>
                     </coding>
                  </valueCodeableConcept>
               </extension>
               <extension/>
               <code>
                  <coding>
                     <system value="http://loinc.org"/>
                     <code value="21906-3"/>
                  </coding>
               </code>
               <valueCodeableConcept>
                  <coding>
                     <system value="http://dktk.dkfz.de/fhir/onco/core/CodeSystem/TNMNCS"/>
                     <code value="(sn)(mol+)"/>
                     <version value="6"/>
                  </coding>
               </valueCodeableConcept>
            </component>
            <component>
               <extension url="http://dktk.dkfz.de/fhir/StructureDefinition/onco-core-Extension-TNMcpuPraefix">
                  <valueCodeableConcept>
                     <coding>
                        <code value="c"/>
                     </coding>
                  </valueCodeableConcept>
               </extension>
               <extension/>
               <code>
                  <coding>
                     <system value="http://loinc.org"/>
                     <code value="21907-1"/>
                  </coding>
               </code>
               <valueCodeableConcept>
                  <coding>
                     <system value="http://dktk.dkfz.de/fhir/onco/core/CodeSystem/TNMMCS"/>
                     <code value="2(cy-)"/>
                     <version value="6"/>
                  </coding>
               </valueCodeableConcept>
            </component>
            <component>
               <code>
                  <coding>
                     <system value="http://loinc.org"/>
                     <code value="59479-6"/>
                  </coding>
               </code>
               <valueCodeableConcept>
                  <coding>
                     <system value="http://dktk.dkfz.de/fhir/onco/core/CodeSystem/TNMySymbolCS"/>
                     <code value="y"/>
                  </coding>
               </valueCodeableConcept>
            </component>
            <component>
               <code>
                  <coding>
                     <system value="http://loinc.org"/>
                     <code value="21983-2"/>
                  </coding>
               </code>
               <valueCodeableConcept>
                  <coding>
                     <system value="http://dktk.dkfz.de/fhir/onco/core/CodeSystem/TNMrSymbolCS"/>
                     <code value="r"/>
                  </coding>
               </valueCodeableConcept>
            </component>
            <component>
               <code>
                  <coding>
                     <system value="http://loinc.org"/>
                     <code value="42030-7"/>
                  </coding>
               </code>
               <valueCodeableConcept>
                  <coding>
                     <system value="http://dktk.dkfz.de/fhir/onco/core/CodeSystem/TNMmSymbolCS"/>
                     <code value="TNM_m_Symbol5"/>
                  </coding>
               </valueCodeableConcept>
            </component>
         </Observation>
      </resource>
      <request>
         <method value="PUT"/>
         <url value="Observation/tnmc0c169622d5bf839"/>
      </request>
   </entry>
   <entry>
      <fullUrl value="http://example.com/Observation/fm85ffb69151da8cc8"/>
      <resource>
         <Observation>
            <id value="fm85ffb69151da8cc8"/>
            <meta>
               <profile value="http://dktk.dkfz.de/fhir/StructureDefinition/onco-core-Observation-Fernmetastasen"/>
            </meta>
            <status value="final"/>
            <code>
               <coding>
                  <system value="http://loinc.org"/>
                  <code value="21907-1"/>
               </coding>
            </code>
            <subject>
               <reference value="Patient/653ae947f9c1f8f6"/>
            </subject>
            <focus>
               <reference value="Condition/digc8edfdcb9555eed6"/>
            </focus>
            <effectiveDateTime value="2021-08-11"/>
            <valueCodeableConcept>
               <coding>
                  <system value="http://dktk.dkfz.de/fhir/onco/core/CodeSystem/JNUCS"/>
                  <code value="ja"/>
               </coding>
            </valueCodeableConcept>
            <bodySite>
               <coding>
                  <system value="http://dktk.dkfz.de/fhir/onco/core/CodeSystem/FMLokalisationCS"/>
                  <code value="PUL"/>
               </coding>
            </bodySite>
         </Observation>
      </resource>
      <request>
         <method value="PUT"/>
         <url value="Observation/fm85ffb69151da8cc8"/>
      </request>
   </entry>
   <entry>
      <fullUrl value="http://example.com/Observation/73a9708a8fac8817"/>
      <resource>
         <Observation>
            <id value="73a9708a8fac8817"/>
            <meta>
               <profile value="http://dktk.dkfz.de/fhir/StructureDefinition/onco-core-Observation-Ecog"/>
            </meta>
            <status value="final"/>
            <code>
               <coding>
                  <system value="http://loinc.org"/>
                  <code value="89247-1"/>
               </coding>
            </code>
            <subject>
               <reference value="Patient/653ae947f9c1f8f6"/>
            </subject>
            <focus>
               <reference value="Condition/digc8edfdcb9555eed6"/>
            </focus>
            <effectiveDateTime value="2021-08-11"/>
            <valueCodeableConcept>
               <coding>
                  <system value="http://dktk.dkfz.de/fhir/onco/core/CodeSystem/EcogCS"/>
                  <code value="0"/>
               </coding>
            </valueCodeableConcept>
         </Observation>
      </resource>
      <request>
         <method value="PUT"/>
         <url value="Observation/73a9708a8fac8817"/>
      </request>
   </entry>
</Bundle>
